{
  "apiVersion": "nonclinical-safety.dev/public-send-profile/v1",
  "source": {
    "repository": "https://github.com/phuse-org/SENDConform",
    "revision": "eb438ce3f7cbd74eea77677f43b916dd46c802cd"
  },
  "method": {
    "description": "Direct XPT decoding from one pinned source revision; SHA-256 calculated over downloaded bytes.",
    "factsVsInterpretation": "Domain and column metrics are observed facts. referenceRangeEvidence reports declared columns, not populated values; the runtime separately measures non-empty source values before rendering limits. Candidate evidence chains are coverage heuristics and require expert review."
  },
  "recommendation": {
    "studyId": "pds",
    "sourceStudyId": "PDS2014",
    "organ": "GLAND, ADRENAL",
    "finding": "Vacuolization",
    "why": [
      "124 animals with both sexes and terminal plus recovery cohorts",
      "dose-stratified microscopic incidence in both sexes",
      "absolute, body-weight-relative, and brain-weight-relative organ weights",
      "standard laboratory reference-limit columns declared but unpopulated in the canonical PDS rows",
      "clinical observations and longitudinal body weight",
      "PC and PP exposure evidence",
      "112 RELREC rows including source-declared MA-to-MI relationships"
    ],
    "observedMicroscopyIncidence": {
      "female": {
        "vehicle": "0/13",
        "20 mg/kg": "2/13",
        "200 mg/kg": "7/13",
        "400 mg/kg": "10/13",
        "400 mg/kg recovery": "2/5",
        "recovery control": "1/5"
      },
      "male": {
        "vehicle": "1/13",
        "20 mg/kg": "1/13",
        "200 mg/kg": "1/13",
        "400 mg/kg": "9/13",
        "400 mg/kg recovery": "0/5",
        "recovery control": "1/5"
      }
    },
    "relationshipPolicy": {
      "sourceDeclared": [
        "MA to MI through RELREC"
      ],
      "standardDerived": [
        "subject evidence through USUBJID",
        "treatment assignment through DM.SETCD to TX.SETCD",
        "phase through SE",
        "dose and exposure through EX, PC, and PP identifiers plus timing"
      ],
      "semanticBindingRequired": [
        "organ and finding nomenclature equivalence across domains or studies"
      ]
    },
    "boundary": "The evidence supports an expert assessment workflow, not an automated adversity, reversibility, causality, or NOAEL conclusion."
  },
  "studies": [
    {
      "id": "ffu",
      "label": "FFU Contribution to FDA",
      "sourcePath": "data/studies/FFU-Contribution-to-FDA",
      "summary": {
        "domainCount": 25,
        "recordCount": 10020,
        "subjectCountAcrossDomains": 10,
        "sampledStudyAttributes": {
          "STUDYID": [
            "Study ID"
          ],
          "SEX": [
            "F"
          ],
          "SETCD": [
            "1",
            "2",
            "3",
            "4",
            "5"
          ],
          "ARMCD": [
            "1",
            "2",
            "3",
            "4",
            "5"
          ],
          "ARM": [
            "Dose:2",
            "Dose:3",
            "Dose:4",
            "Dose:5",
            "Vehicle control:1"
          ]
        },
        "recoveryEvidence": [],
        "phaseEvidence": [
          {
            "domain": "SE",
            "field": "ETCD",
            "values": [
              "PHb",
              "TR1d",
              "TR2d",
              "TR3d",
              "TR4d",
              "TR5d"
            ]
          },
          {
            "domain": "SE",
            "field": "ELEMENT",
            "values": [
              "Baseline",
              "G1 - Compound: F: 0 mg/kg",
              "G2 - Compound 1: F: 12 mg/kg",
              "G3 - Compound 2: F: 4 mg/kg",
              "G4 - Compound 2: F: 8 mg/kg",
              "G5 - Compound 3: F: 6 mg/kg"
            ]
          },
          {
            "domain": "TA",
            "field": "ETCD",
            "values": [
              "PHb",
              "TR1d",
              "TR2d",
              "TR3d",
              "TR4d",
              "TR5d"
            ]
          },
          {
            "domain": "TA",
            "field": "ELEMENT",
            "values": [
              "Baseline",
              "G1 - Compound: F: 0 mg/kg",
              "G2 - Compound 1: F: 12 mg/kg",
              "G3 - Compound 2: F: 4 mg/kg",
              "G4 - Compound 2: F: 8 mg/kg",
              "G5 - Compound 3: F: 6 mg/kg"
            ]
          },
          {
            "domain": "TA",
            "field": "EPOCH",
            "values": [
              "Baseline",
              "Dosing"
            ]
          },
          {
            "domain": "TE",
            "field": "ETCD",
            "values": [
              "PHb",
              "TR1d",
              "TR2d",
              "TR3d",
              "TR4d",
              "TR5d"
            ]
          },
          {
            "domain": "TE",
            "field": "ELEMENT",
            "values": [
              "Baseline",
              "G1 - Compound: F: 0 mg/kg",
              "G2 - Compound 1: F: 12 mg/kg",
              "G3 - Compound 2: F: 4 mg/kg",
              "G4 - Compound 2: F: 8 mg/kg",
              "G5 - Compound 3: F: 6 mg/kg"
            ]
          }
        ],
        "referenceRangeEvidence": [],
        "relrecRows": 0
      },
      "domains": [
        {
          "domain": "BG",
          "path": "data/studies/FFU-Contribution-to-FDA/bg.xpt",
          "bytes": 14960,
          "sha256": "fedc2bd15079054e0cbcb61aa03666a2e85f88ce509ccef57e0c175b3b6935a0",
          "rows": 90,
          "columns": [
            "STUDYID",
            "DOMAIN",
            "USUBJID",
            "BGSEQ",
            "BGTESTCD",
            "BGTEST",
            "BGORRES",
            "BGORRESU",
            "BGSTRESC",
            "BGSTRESN",
            "BGSTRESU",
            "BGDTC",
            "BGENDTC",
            "BGDY",
            "BGENDY",
            "BGELTM"
          ],
          "populatedColumns": [
            "STUDYID",
            "DOMAIN",
            "USUBJID",
            "BGSEQ",
            "BGTESTCD",
            "BGTEST",
            "BGORRES",
            "BGORRESU",
            "BGSTRESC",
            "BGSTRESN",
            "BGSTRESU",
            "BGDTC",
            "BGENDTC",
            "BGDY",
            "BGENDY",
            "BGELTM"
          ],
          "subjectCount": 10,
          "identityFields": [
            "STUDYID",
            "DOMAIN",
            "USUBJID"
          ],
          "timingFields": [
            "BGDTC",
            "BGENDTC",
            "BGDY",
            "BGENDY"
          ],
          "relationshipFields": [],
          "referenceRangeFields": [],
          "unitFields": [
            "BGORRESU",
            "BGSTRESU"
          ],
          "columnProfile": {
            "STUDYID": {
              "populated": 90,
              "missing": 0,
              "distinctPopulated": 1,
              "sampleValues": [
                "Study ID"
              ]
            },
            "DOMAIN": {
              "populated": 90,
              "missing": 0,
              "distinctPopulated": 1,
              "sampleValues": [
                "BG"
              ]
            },
            "USUBJID": {
              "populated": 90,
              "missing": 0,
              "distinctPopulated": 10,
              "sampleValues": [
                "Study ID-1002",
                "Study ID-1004",
                "Study ID-2002",
                "Study ID-2004",
                "Study ID-3002",
                "Study ID-3004",
                "Study ID-4002",
                "Study ID-4004",
                "Study ID-5002",
                "Study ID-5004"
              ]
            },
            "BGSEQ": {
              "populated": 90,
              "missing": 0,
              "distinctPopulated": 90
            },
            "BGTESTCD": {
              "populated": 90,
              "missing": 0,
              "distinctPopulated": 1
            },
            "BGTEST": {
              "populated": 90,
              "missing": 0,
              "distinctPopulated": 1
            },
            "BGORRES": {
              "populated": 90,
              "missing": 0,
              "distinctPopulated": 34
            },
            "BGORRESU": {
              "populated": 90,
              "missing": 0,
              "distinctPopulated": 1,
              "sampleValues": [
                "kg"
              ]
            },
            "BGSTRESC": {
              "populated": 90,
              "missing": 0,
              "distinctPopulated": 34
            },
            "BGSTRESN": {
              "populated": 90,
              "missing": 0,
              "distinctPopulated": 34
            },
            "BGSTRESU": {
              "populated": 90,
              "missing": 0,
              "distinctPopulated": 1,
              "sampleValues": [
                "kg"
              ]
            },
            "BGDTC": {
              "populated": 90,
              "missing": 0,
              "distinctPopulated": 90
            },
            "BGENDTC": {
              "populated": 90,
              "missing": 0,
              "distinctPopulated": 90
            },
            "BGDY": {
              "populated": 90,
              "missing": 0,
              "distinctPopulated": 9
            },
            "BGENDY": {
              "populated": 90,
              "missing": 0,
              "distinctPopulated": 9
            },
            "BGELTM": {
              "populated": 90,
              "missing": 0,
              "distinctPopulated": 4
            }
          },
          "sourceSystem": {
            "name": "pyreadstat",
            "version": "1.3.6"
          },
          "tableName": "BG"
        },
        {
          "domain": "BW",
          "path": "data/studies/FFU-Contribution-to-FDA/bw.xpt",
          "bytes": 15360,
          "sha256": "289a4df473cad66377575b2692857127906c6b7143224975bb25edcda4f1b953",
          "rows": 110,
          "columns": [
            "STUDYID",
            "DOMAIN",
            "USUBJID",
            "BWSEQ",
            "BWTESTCD",
            "BWTEST",
            "BWORRES",
            "BWORRESU",
            "BWSTRESC",
            "BWSTRESN",
            "BWSTRESU",
            "BWBLFL",
            "VISITDY",
            "BWDTC",
            "BWDY"
          ],
          "populatedColumns": [
            "STUDYID",
            "DOMAIN",
            "USUBJID",
            "BWSEQ",
            "BWTESTCD",
            "BWTEST",
            "BWORRES",
            "BWORRESU",
            "BWSTRESC",
            "BWSTRESN",
            "BWSTRESU",
            "VISITDY",
            "BWDTC",
            "BWDY"
          ],
          "subjectCount": 10,
          "identityFields": [
            "STUDYID",
            "DOMAIN",
            "USUBJID"
          ],
          "timingFields": [
            "VISITDY",
            "BWDTC",
            "BWDY"
          ],
          "relationshipFields": [],
          "referenceRangeFields": [],
          "unitFields": [
            "BWORRESU",
            "BWSTRESU"
          ],
          "columnProfile": {
            "STUDYID": {
              "populated": 110,
              "missing": 0,
              "distinctPopulated": 1,
              "sampleValues": [
                "Study ID"
              ]
            },
            "DOMAIN": {
              "populated": 110,
              "missing": 0,
              "distinctPopulated": 1,
              "sampleValues": [
                "BW"
              ]
            },
            "USUBJID": {
              "populated": 110,
              "missing": 0,
              "distinctPopulated": 10,
              "sampleValues": [
                "Study ID-1002",
                "Study ID-1004",
                "Study ID-2002",
                "Study ID-2004",
                "Study ID-3002",
                "Study ID-3004",
                "Study ID-4002",
                "Study ID-4004",
                "Study ID-5002",
                "Study ID-5004"
              ]
            },
            "BWSEQ": {
              "populated": 110,
              "missing": 0,
              "distinctPopulated": 110
            },
            "BWTESTCD": {
              "populated": 110,
              "missing": 0,
              "distinctPopulated": 2
            },
            "BWTEST": {
              "populated": 110,
              "missing": 0,
              "distinctPopulated": 2
            },
            "BWORRES": {
              "populated": 110,
              "missing": 0,
              "distinctPopulated": 65
            },
            "BWORRESU": {
              "populated": 110,
              "missing": 0,
              "distinctPopulated": 1,
              "sampleValues": [
                "kg"
              ]
            },
            "BWSTRESC": {
              "populated": 110,
              "missing": 0,
              "distinctPopulated": 65
            },
            "BWSTRESN": {
              "populated": 110,
              "missing": 0,
              "distinctPopulated": 65
            },
            "BWSTRESU": {
              "populated": 110,
              "missing": 0,
              "distinctPopulated": 1,
              "sampleValues": [
                "kg"
              ]
            },
            "BWBLFL": {
              "populated": 0,
              "missing": 110,
              "distinctPopulated": 0
            },
            "VISITDY": {
              "populated": 110,
              "missing": 0,
              "distinctPopulated": 11,
              "sampleValues": [
                -10,
                -16,
                1,
                12,
                15,
                19,
                22,
                26,
                30,
                5,
                8
              ]
            },
            "BWDTC": {
              "populated": 110,
              "missing": 0,
              "distinctPopulated": 110
            },
            "BWDY": {
              "populated": 110,
              "missing": 0,
              "distinctPopulated": 11
            }
          },
          "sourceSystem": {
            "name": "pyreadstat",
            "version": "1.3.6"
          },
          "tableName": "BW"
        },
        {
          "domain": "CL",
          "path": "data/studies/FFU-Contribution-to-FDA/cl.xpt",
          "bytes": 69360,
          "sha256": "887b6343041f06c16bd23bf91b7e620d9fd33f19813f4d68a96977d6d397aba8",
          "rows": 259,
          "columns": [
            "STUDYID",
            "DOMAIN",
            "USUBJID",
            "CLSEQ",
            "CLGRPID",
            "CLTESTCD",
            "CLTEST",
            "CLCAT",
            "CLSCAT",
            "CLORRES",
            "CLSTRESC",
            "CLLOC",
            "CLSEV",
            "VISITDY",
            "CLDTC",
            "CLDY",
            "CLTPT",
            "CLTPTNUM"
          ],
          "populatedColumns": [
            "STUDYID",
            "DOMAIN",
            "USUBJID",
            "CLSEQ",
            "CLGRPID",
            "CLTESTCD",
            "CLTEST",
            "CLCAT",
            "CLSCAT",
            "CLORRES",
            "CLSTRESC",
            "CLLOC",
            "CLSEV",
            "VISITDY",
            "CLDTC",
            "CLDY",
            "CLTPT",
            "CLTPTNUM"
          ],
          "subjectCount": 10,
          "identityFields": [
            "STUDYID",
            "DOMAIN",
            "USUBJID"
          ],
          "timingFields": [
            "VISITDY",
            "CLDTC",
            "CLDY",
            "CLTPT",
            "CLTPTNUM"
          ],
          "relationshipFields": [],
          "referenceRangeFields": [],
          "unitFields": [],
          "columnProfile": {
            "STUDYID": {
              "populated": 259,
              "missing": 0,
              "distinctPopulated": 1,
              "sampleValues": [
                "Study ID"
              ]
            },
            "DOMAIN": {
              "populated": 259,
              "missing": 0,
              "distinctPopulated": 1,
              "sampleValues": [
                "CL"
              ]
            },
            "USUBJID": {
              "populated": 259,
              "missing": 0,
              "distinctPopulated": 10,
              "sampleValues": [
                "Study ID-1002",
                "Study ID-1004",
                "Study ID-2002",
                "Study ID-2004",
                "Study ID-3002",
                "Study ID-3004",
                "Study ID-4002",
                "Study ID-4004",
                "Study ID-5002",
                "Study ID-5004"
              ]
            },
            "CLSEQ": {
              "populated": 259,
              "missing": 0,
              "distinctPopulated": 259
            },
            "CLGRPID": {
              "populated": 259,
              "missing": 0,
              "distinctPopulated": 218
            },
            "CLTESTCD": {
              "populated": 259,
              "missing": 0,
              "distinctPopulated": 6
            },
            "CLTEST": {
              "populated": 259,
              "missing": 0,
              "distinctPopulated": 6
            },
            "CLCAT": {
              "populated": 259,
              "missing": 0,
              "distinctPopulated": 2,
              "sampleValues": [
                "CLINICAL SIGNS",
                "PHYSICAL EXAM"
              ]
            },
            "CLSCAT": {
              "populated": 259,
              "missing": 0,
              "distinctPopulated": 2,
              "sampleValues": [
                "Clinical Observations",
                "Veterinary Clinical Observations"
              ]
            },
            "CLORRES": {
              "populated": 259,
              "missing": 0,
              "distinctPopulated": 36
            },
            "CLSTRESC": {
              "populated": 259,
              "missing": 0,
              "distinctPopulated": 15
            },
            "CLLOC": {
              "populated": 104,
              "missing": 155,
              "distinctPopulated": 13,
              "sampleValues": [
                "forelimb (left)",
                "forelimb (right)",
                "hindlimb (left)",
                "hindlimb (right)",
                "hindlimbs (both)",
                "hindpaw (right)",
                "injection site (present day)",
                "injection site (previous day)",
                "muzzle",
                "nose",
                "tail (distal)",
                "tail (middle)"
              ]
            },
            "CLSEV": {
              "populated": 46,
              "missing": 213,
              "distinctPopulated": 3,
              "sampleValues": [
                "mild",
                "moderate",
                "small amount"
              ]
            },
            "VISITDY": {
              "populated": 180,
              "missing": 79,
              "distinctPopulated": 13,
              "sampleValues": [
                -10,
                -16,
                1,
                12,
                15,
                19,
                2,
                22,
                23,
                26,
                29,
                5
              ]
            },
            "CLDTC": {
              "populated": 259,
              "missing": 0,
              "distinctPopulated": 218
            },
            "CLDY": {
              "populated": 259,
              "missing": 0,
              "distinctPopulated": 19
            },
            "CLTPT": {
              "populated": 170,
              "missing": 89,
              "distinctPopulated": 1
            },
            "CLTPTNUM": {
              "populated": 170,
              "missing": 89,
              "distinctPopulated": 1
            }
          },
          "sourceSystem": {
            "name": "pyreadstat",
            "version": "1.3.6"
          },
          "tableName": "CL"
        },
        {
          "domain": "CO",
          "path": "data/studies/FFU-Contribution-to-FDA/co.xpt",
          "bytes": 89920,
          "sha256": "0edc204e2994cfe05499943b0518dd6569524decb60e4a0ab6c0c911c69aaad0",
          "rows": 309,
          "columns": [
            "STUDYID",
            "DOMAIN",
            "RDOMAIN",
            "USUBJID",
            "COSEQ",
            "IDVAR",
            "IDVARVAL",
            "COVAL",
            "COVAL1",
            "CODTC"
          ],
          "populatedColumns": [
            "STUDYID",
            "DOMAIN",
            "RDOMAIN",
            "USUBJID",
            "COSEQ",
            "IDVAR",
            "IDVARVAL",
            "COVAL",
            "COVAL1"
          ],
          "subjectCount": 10,
          "identityFields": [
            "STUDYID",
            "DOMAIN",
            "USUBJID"
          ],
          "timingFields": [
            "CODTC"
          ],
          "relationshipFields": [
            "RDOMAIN",
            "IDVAR",
            "IDVARVAL"
          ],
          "referenceRangeFields": [],
          "unitFields": [],
          "columnProfile": {
            "STUDYID": {
              "populated": 309,
              "missing": 0,
              "distinctPopulated": 1,
              "sampleValues": [
                "Study ID"
              ]
            },
            "DOMAIN": {
              "populated": 309,
              "missing": 0,
              "distinctPopulated": 1,
              "sampleValues": [
                "CO"
              ]
            },
            "RDOMAIN": {
              "populated": 309,
              "missing": 0,
              "distinctPopulated": 4,
              "sampleValues": [
                "CL",
                "EX",
                "LB",
                "MI"
              ]
            },
            "USUBJID": {
              "populated": 309,
              "missing": 0,
              "distinctPopulated": 10,
              "sampleValues": [
                "Study ID-1002",
                "Study ID-1004",
                "Study ID-2002",
                "Study ID-2004",
                "Study ID-3002",
                "Study ID-3004",
                "Study ID-4002",
                "Study ID-4004",
                "Study ID-5002",
                "Study ID-5004"
              ]
            },
            "COSEQ": {
              "populated": 309,
              "missing": 0,
              "distinctPopulated": 309
            },
            "IDVAR": {
              "populated": 309,
              "missing": 0,
              "distinctPopulated": 6,
              "sampleValues": [
                "CLGRPID",
                "CLSEQ",
                "EXSEQ",
                "LBSEQ",
                "MIGRPID",
                "MISEQ"
              ]
            },
            "IDVARVAL": {
              "populated": 309,
              "missing": 0,
              "distinctPopulated": 306,
              "sampleValues": [
                "102",
                "108",
                "109",
                "1101",
                "1102",
                "1103",
                "1104",
                "1105",
                "115",
                "117",
                "12",
                "122"
              ]
            },
            "COVAL": {
              "populated": 309,
              "missing": 0,
              "distinctPopulated": 111
            },
            "COVAL1": {
              "populated": 4,
              "missing": 305,
              "distinctPopulated": 2
            },
            "CODTC": {
              "populated": 0,
              "missing": 309,
              "distinctPopulated": 0
            }
          },
          "sourceSystem": {
            "name": "pyreadstat",
            "version": "1.3.6"
          },
          "tableName": "CO"
        },
        {
          "domain": "DM",
          "path": "data/studies/FFU-Contribution-to-FDA/dm.xpt",
          "bytes": 3760,
          "sha256": "b96fd8e5da32cbba9a97981fee973de3b7e56149f5fe0f312a90f36b333397a3",
          "rows": 10,
          "columns": [
            "STUDYID",
            "DOMAIN",
            "USUBJID",
            "SUBJID",
            "RFSTDTC",
            "RFENDTC",
            "SITEID",
            "BRTHDTC",
            "AGE",
            "AGEU",
            "SEX",
            "ARMCD",
            "ARM",
            "SETCD"
          ],
          "populatedColumns": [
            "STUDYID",
            "DOMAIN",
            "USUBJID",
            "SUBJID",
            "RFSTDTC",
            "RFENDTC",
            "SITEID",
            "BRTHDTC",
            "AGE",
            "AGEU",
            "SEX",
            "ARMCD",
            "ARM",
            "SETCD"
          ],
          "subjectCount": 10,
          "identityFields": [
            "STUDYID",
            "DOMAIN",
            "USUBJID",
            "SUBJID",
            "SETCD"
          ],
          "timingFields": [
            "RFSTDTC",
            "RFENDTC"
          ],
          "relationshipFields": [],
          "referenceRangeFields": [],
          "unitFields": [],
          "columnProfile": {
            "STUDYID": {
              "populated": 10,
              "missing": 0,
              "distinctPopulated": 1,
              "sampleValues": [
                "Study ID"
              ]
            },
            "DOMAIN": {
              "populated": 10,
              "missing": 0,
              "distinctPopulated": 1,
              "sampleValues": [
                "DM"
              ]
            },
            "USUBJID": {
              "populated": 10,
              "missing": 0,
              "distinctPopulated": 10,
              "sampleValues": [
                "Study ID-1002",
                "Study ID-1004",
                "Study ID-2002",
                "Study ID-2004",
                "Study ID-3002",
                "Study ID-3004",
                "Study ID-4002",
                "Study ID-4004",
                "Study ID-5002",
                "Study ID-5004"
              ]
            },
            "SUBJID": {
              "populated": 10,
              "missing": 0,
              "distinctPopulated": 10,
              "sampleValues": [
                "1002",
                "1004",
                "2002",
                "2004",
                "3002",
                "3004",
                "4002",
                "4004",
                "5002",
                "5004"
              ]
            },
            "RFSTDTC": {
              "populated": 10,
              "missing": 0,
              "distinctPopulated": 1
            },
            "RFENDTC": {
              "populated": 10,
              "missing": 0,
              "distinctPopulated": 1
            },
            "SITEID": {
              "populated": 10,
              "missing": 0,
              "distinctPopulated": 1
            },
            "BRTHDTC": {
              "populated": 10,
              "missing": 0,
              "distinctPopulated": 10
            },
            "AGE": {
              "populated": 10,
              "missing": 0,
              "distinctPopulated": 10
            },
            "AGEU": {
              "populated": 10,
              "missing": 0,
              "distinctPopulated": 1
            },
            "SEX": {
              "populated": 10,
              "missing": 0,
              "distinctPopulated": 1
            },
            "ARMCD": {
              "populated": 10,
              "missing": 0,
              "distinctPopulated": 5
            },
            "ARM": {
              "populated": 10,
              "missing": 0,
              "distinctPopulated": 5
            },
            "SETCD": {
              "populated": 10,
              "missing": 0,
              "distinctPopulated": 5,
              "sampleValues": [
                "1",
                "2",
                "3",
                "4",
                "5"
              ]
            }
          },
          "sourceSystem": {
            "name": "pyreadstat",
            "version": "1.3.6"
          },
          "tableName": "DM"
        },
        {
          "domain": "DS",
          "path": "data/studies/FFU-Contribution-to-FDA/ds.xpt",
          "bytes": 3040,
          "sha256": "24499b949cb5f5143c34a162c57db8dd68d9a15be473d1172db002712e91766f",
          "rows": 10,
          "columns": [
            "STUDYID",
            "DOMAIN",
            "USUBJID",
            "DSSEQ",
            "DSTERM",
            "DSDECOD",
            "VISITDY",
            "DSSTDTC",
            "DSSTDY"
          ],
          "populatedColumns": [
            "STUDYID",
            "DOMAIN",
            "USUBJID",
            "DSSEQ",
            "DSTERM",
            "DSDECOD",
            "VISITDY",
            "DSSTDTC",
            "DSSTDY"
          ],
          "subjectCount": 10,
          "identityFields": [
            "STUDYID",
            "DOMAIN",
            "USUBJID"
          ],
          "timingFields": [
            "VISITDY",
            "DSSTDTC",
            "DSSTDY"
          ],
          "relationshipFields": [],
          "referenceRangeFields": [],
          "unitFields": [],
          "columnProfile": {
            "STUDYID": {
              "populated": 10,
              "missing": 0,
              "distinctPopulated": 1,
              "sampleValues": [
                "Study ID"
              ]
            },
            "DOMAIN": {
              "populated": 10,
              "missing": 0,
              "distinctPopulated": 1,
              "sampleValues": [
                "DS"
              ]
            },
            "USUBJID": {
              "populated": 10,
              "missing": 0,
              "distinctPopulated": 10,
              "sampleValues": [
                "Study ID-1002",
                "Study ID-1004",
                "Study ID-2002",
                "Study ID-2004",
                "Study ID-3002",
                "Study ID-3004",
                "Study ID-4002",
                "Study ID-4004",
                "Study ID-5002",
                "Study ID-5004"
              ]
            },
            "DSSEQ": {
              "populated": 10,
              "missing": 0,
              "distinctPopulated": 10
            },
            "DSTERM": {
              "populated": 10,
              "missing": 0,
              "distinctPopulated": 1
            },
            "DSDECOD": {
              "populated": 10,
              "missing": 0,
              "distinctPopulated": 1
            },
            "VISITDY": {
              "populated": 10,
              "missing": 0,
              "distinctPopulated": 1,
              "sampleValues": [
                30
              ]
            },
            "DSSTDTC": {
              "populated": 10,
              "missing": 0,
              "distinctPopulated": 10
            },
            "DSSTDY": {
              "populated": 10,
              "missing": 0,
              "distinctPopulated": 1
            }
          },
          "sourceSystem": {
            "name": "pyreadstat",
            "version": "1.3.6"
          },
          "tableName": "DS"
        },
        {
          "domain": "EX",
          "path": "data/studies/FFU-Contribution-to-FDA/ex.xpt",
          "bytes": 7440,
          "sha256": "b00e5680c2c3aae7e83e6615c610a53cce87c0e239083abee2e7ea36954baeaa",
          "rows": 32,
          "columns": [
            "STUDYID",
            "DOMAIN",
            "USUBJID",
            "EXSEQ",
            "EXTRT",
            "EXDOSE",
            "EXDOSU",
            "EXDOSFRM",
            "EXDOSFRQ",
            "EXROUTE",
            "EXLOT",
            "EXTRTV",
            "EXVAMT",
            "EXVAMTU",
            "EXSTDTC",
            "EXSTDY"
          ],
          "populatedColumns": [
            "STUDYID",
            "DOMAIN",
            "USUBJID",
            "EXSEQ",
            "EXTRT",
            "EXDOSE",
            "EXDOSU",
            "EXDOSFRQ",
            "EXROUTE",
            "EXTRTV",
            "EXVAMT",
            "EXVAMTU",
            "EXSTDTC",
            "EXSTDY"
          ],
          "subjectCount": 10,
          "identityFields": [
            "STUDYID",
            "DOMAIN",
            "USUBJID"
          ],
          "timingFields": [
            "EXSTDTC",
            "EXSTDY"
          ],
          "relationshipFields": [],
          "referenceRangeFields": [],
          "unitFields": [
            "EXDOSU"
          ],
          "columnProfile": {
            "STUDYID": {
              "populated": 32,
              "missing": 0,
              "distinctPopulated": 1,
              "sampleValues": [
                "Study ID"
              ]
            },
            "DOMAIN": {
              "populated": 32,
              "missing": 0,
              "distinctPopulated": 1,
              "sampleValues": [
                "EX"
              ]
            },
            "USUBJID": {
              "populated": 32,
              "missing": 0,
              "distinctPopulated": 10,
              "sampleValues": [
                "Study ID-1002",
                "Study ID-1004",
                "Study ID-2002",
                "Study ID-2004",
                "Study ID-3002",
                "Study ID-3004",
                "Study ID-4002",
                "Study ID-4004",
                "Study ID-5002",
                "Study ID-5004"
              ]
            },
            "EXSEQ": {
              "populated": 32,
              "missing": 0,
              "distinctPopulated": 32
            },
            "EXTRT": {
              "populated": 32,
              "missing": 0,
              "distinctPopulated": 3
            },
            "EXDOSE": {
              "populated": 32,
              "missing": 0,
              "distinctPopulated": 5
            },
            "EXDOSU": {
              "populated": 32,
              "missing": 0,
              "distinctPopulated": 1,
              "sampleValues": [
                "mg/kg"
              ]
            },
            "EXDOSFRM": {
              "populated": 0,
              "missing": 32,
              "distinctPopulated": 0
            },
            "EXDOSFRQ": {
              "populated": 32,
              "missing": 0,
              "distinctPopulated": 1
            },
            "EXROUTE": {
              "populated": 32,
              "missing": 0,
              "distinctPopulated": 1
            },
            "EXLOT": {
              "populated": 0,
              "missing": 32,
              "distinctPopulated": 0
            },
            "EXTRTV": {
              "populated": 32,
              "missing": 0,
              "distinctPopulated": 1
            },
            "EXVAMT": {
              "populated": 32,
              "missing": 0,
              "distinctPopulated": 12
            },
            "EXVAMTU": {
              "populated": 32,
              "missing": 0,
              "distinctPopulated": 1
            },
            "EXSTDTC": {
              "populated": 32,
              "missing": 0,
              "distinctPopulated": 32
            },
            "EXSTDY": {
              "populated": 32,
              "missing": 0,
              "distinctPopulated": 2
            }
          },
          "sourceSystem": {
            "name": "pyreadstat",
            "version": "1.3.6"
          },
          "tableName": "EX"
        },
        {
          "domain": "LB",
          "path": "data/studies/FFU-Contribution-to-FDA/lb.xpt",
          "bytes": 457200,
          "sha256": "2213d9a70a4bb7170542edb79f9929f1813b122baaeded0dc6a04e5bd9a30cff",
          "rows": 2032,
          "columns": [
            "STUDYID",
            "DOMAIN",
            "USUBJID",
            "LBSEQ",
            "LBGRPID",
            "LBREFID",
            "LBTESTCD",
            "LBTEST",
            "LBCAT",
            "LBSCAT",
            "LBORRES",
            "LBORRESU",
            "LBSTRESC",
            "LBSTRESN",
            "LBSTRESU",
            "LBSPEC",
            "LBMETHOD",
            "LBBLFL",
            "VISITDY",
            "LBDTC",
            "LBDY",
            "LBTPT",
            "LBTPTNUM"
          ],
          "populatedColumns": [
            "STUDYID",
            "DOMAIN",
            "USUBJID",
            "LBSEQ",
            "LBGRPID",
            "LBREFID",
            "LBTESTCD",
            "LBTEST",
            "LBCAT",
            "LBSCAT",
            "LBORRES",
            "LBORRESU",
            "LBSTRESC",
            "LBSTRESN",
            "LBSTRESU",
            "LBSPEC",
            "VISITDY",
            "LBDTC",
            "LBDY",
            "LBTPT",
            "LBTPTNUM"
          ],
          "subjectCount": 10,
          "identityFields": [
            "STUDYID",
            "DOMAIN",
            "USUBJID"
          ],
          "timingFields": [
            "VISITDY",
            "LBDTC",
            "LBDY",
            "LBTPT",
            "LBTPTNUM"
          ],
          "relationshipFields": [],
          "referenceRangeFields": [],
          "unitFields": [
            "LBORRESU",
            "LBSTRESU"
          ],
          "columnProfile": {
            "STUDYID": {
              "populated": 2032,
              "missing": 0,
              "distinctPopulated": 1,
              "sampleValues": [
                "Study ID"
              ]
            },
            "DOMAIN": {
              "populated": 2032,
              "missing": 0,
              "distinctPopulated": 1,
              "sampleValues": [
                "LB"
              ]
            },
            "USUBJID": {
              "populated": 2032,
              "missing": 0,
              "distinctPopulated": 10,
              "sampleValues": [
                "Study ID-1002",
                "Study ID-1004",
                "Study ID-2002",
                "Study ID-2004",
                "Study ID-3002",
                "Study ID-3004",
                "Study ID-4002",
                "Study ID-4004",
                "Study ID-5002",
                "Study ID-5004"
              ]
            },
            "LBSEQ": {
              "populated": 2032,
              "missing": 0,
              "distinctPopulated": 2032
            },
            "LBGRPID": {
              "populated": 2032,
              "missing": 0,
              "distinctPopulated": 152
            },
            "LBREFID": {
              "populated": 2032,
              "missing": 0,
              "distinctPopulated": 152
            },
            "LBTESTCD": {
              "populated": 2032,
              "missing": 0,
              "distinctPopulated": 40
            },
            "LBTEST": {
              "populated": 2032,
              "missing": 0,
              "distinctPopulated": 40
            },
            "LBCAT": {
              "populated": 2032,
              "missing": 0,
              "distinctPopulated": 3,
              "sampleValues": [
                "Clinical Chemistry",
                "Coagulation",
                "Hematology"
              ]
            },
            "LBSCAT": {
              "populated": 2032,
              "missing": 0,
              "distinctPopulated": 3,
              "sampleValues": [
                "General Chemistry",
                "General Coagulation",
                "General Hematology"
              ]
            },
            "LBORRES": {
              "populated": 2032,
              "missing": 0,
              "distinctPopulated": 845
            },
            "LBORRESU": {
              "populated": 2032,
              "missing": 0,
              "distinctPopulated": 11,
              "sampleValues": [
                "%",
                "10^12/L",
                "10^9/L",
                "IU/L",
                "RATIO",
                "fL",
                "g/dL",
                "mg/dL",
                "mmol/L",
                "pg",
                "sec"
              ]
            },
            "LBSTRESC": {
              "populated": 2032,
              "missing": 0,
              "distinctPopulated": 845
            },
            "LBSTRESN": {
              "populated": 2018,
              "missing": 14,
              "distinctPopulated": 801
            },
            "LBSTRESU": {
              "populated": 2032,
              "missing": 0,
              "distinctPopulated": 11,
              "sampleValues": [
                "%",
                "10^12/L",
                "10^9/L",
                "IU/L",
                "RATIO",
                "fL",
                "g/dL",
                "mg/dL",
                "mmol/L",
                "pg",
                "sec"
              ]
            },
            "LBSPEC": {
              "populated": 2032,
              "missing": 0,
              "distinctPopulated": 3,
              "sampleValues": [
                "PLASMA",
                "SERUM",
                "WHOLE BLOOD"
              ]
            },
            "LBMETHOD": {
              "populated": 0,
              "missing": 2032,
              "distinctPopulated": 0,
              "sampleValues": []
            },
            "LBBLFL": {
              "populated": 0,
              "missing": 2032,
              "distinctPopulated": 0
            },
            "VISITDY": {
              "populated": 2032,
              "missing": 0,
              "distinctPopulated": 6,
              "sampleValues": [
                -10,
                -16,
                22,
                29,
                30,
                8
              ]
            },
            "LBDTC": {
              "populated": 2032,
              "missing": 0,
              "distinctPopulated": 1156
            },
            "LBDY": {
              "populated": 2032,
              "missing": 0,
              "distinctPopulated": 6
            },
            "LBTPT": {
              "populated": 2032,
              "missing": 0,
              "distinctPopulated": 2
            },
            "LBTPTNUM": {
              "populated": 2032,
              "missing": 0,
              "distinctPopulated": 2
            }
          },
          "sourceSystem": {
            "name": "pyreadstat",
            "version": "1.3.6"
          },
          "tableName": "LB"
        },
        {
          "domain": "MA",
          "path": "data/studies/FFU-Contribution-to-FDA/ma.xpt",
          "bytes": 111600,
          "sha256": "57c29fa65dca7756c9cf64edb11e6e3f51b0ba9f5fd223ac0b54ca5286568a55",
          "rows": 520,
          "columns": [
            "STUDYID",
            "DOMAIN",
            "USUBJID",
            "MASEQ",
            "MAGRPID",
            "MAREFID",
            "MATESTCD",
            "MATEST",
            "MAORRES",
            "MASTRESC",
            "MASPEC",
            "MAANTREG",
            "MASEV",
            "MADTC",
            "MADY"
          ],
          "populatedColumns": [
            "STUDYID",
            "DOMAIN",
            "USUBJID",
            "MASEQ",
            "MAGRPID",
            "MAREFID",
            "MATESTCD",
            "MATEST",
            "MAORRES",
            "MASTRESC",
            "MASPEC",
            "MASEV",
            "MADTC",
            "MADY"
          ],
          "subjectCount": 10,
          "identityFields": [
            "STUDYID",
            "DOMAIN",
            "USUBJID"
          ],
          "timingFields": [
            "MADTC",
            "MADY"
          ],
          "relationshipFields": [],
          "referenceRangeFields": [],
          "unitFields": [],
          "columnProfile": {
            "STUDYID": {
              "populated": 520,
              "missing": 0,
              "distinctPopulated": 1,
              "sampleValues": [
                "Study ID"
              ]
            },
            "DOMAIN": {
              "populated": 520,
              "missing": 0,
              "distinctPopulated": 1,
              "sampleValues": [
                "MA"
              ]
            },
            "USUBJID": {
              "populated": 520,
              "missing": 0,
              "distinctPopulated": 10,
              "sampleValues": [
                "Study ID-1002",
                "Study ID-1004",
                "Study ID-2002",
                "Study ID-2004",
                "Study ID-3002",
                "Study ID-3004",
                "Study ID-4002",
                "Study ID-4004",
                "Study ID-5002",
                "Study ID-5004"
              ]
            },
            "MASEQ": {
              "populated": 520,
              "missing": 0,
              "distinctPopulated": 520
            },
            "MAGRPID": {
              "populated": 520,
              "missing": 0,
              "distinctPopulated": 520
            },
            "MAREFID": {
              "populated": 520,
              "missing": 0,
              "distinctPopulated": 520
            },
            "MATESTCD": {
              "populated": 520,
              "missing": 0,
              "distinctPopulated": 1
            },
            "MATEST": {
              "populated": 520,
              "missing": 0,
              "distinctPopulated": 1
            },
            "MAORRES": {
              "populated": 520,
              "missing": 0,
              "distinctPopulated": 4
            },
            "MASTRESC": {
              "populated": 520,
              "missing": 0,
              "distinctPopulated": 3
            },
            "MASPEC": {
              "populated": 520,
              "missing": 0,
              "distinctPopulated": 52,
              "sampleValues": [
                "ARTERY, AORTA",
                "BONE MARROW",
                "BONE",
                "BRAIN",
                "ESOPHAGUS",
                "EYE",
                "GALLBLADDER",
                "GLAND, ADRENAL",
                "GLAND, MAMMARY",
                "GLAND, PARATHYROID",
                "GLAND, PITUITARY",
                "GLAND, SALIVARY, PAROTID"
              ]
            },
            "MAANTREG": {
              "populated": 0,
              "missing": 520,
              "distinctPopulated": 0
            },
            "MASEV": {
              "populated": 1,
              "missing": 519,
              "distinctPopulated": 1,
              "sampleValues": [
                "MODERATE"
              ]
            },
            "MADTC": {
              "populated": 520,
              "missing": 0,
              "distinctPopulated": 10
            },
            "MADY": {
              "populated": 520,
              "missing": 0,
              "distinctPopulated": 1
            }
          },
          "sourceSystem": {
            "name": "pyreadstat",
            "version": "1.3.6"
          },
          "tableName": "MA"
        },
        {
          "domain": "MI",
          "path": "data/studies/FFU-Contribution-to-FDA/mi.xpt",
          "bytes": 89120,
          "sha256": "edc563592c9ba368fe636aefd1126a1848f5753e6f005153e6bf5bc3425f5c96",
          "rows": 242,
          "columns": [
            "STUDYID",
            "DOMAIN",
            "USUBJID",
            "MISEQ",
            "MIGRPID",
            "MIREFID",
            "MITESTCD",
            "MITEST",
            "MIORRES",
            "MISTRESC",
            "MIRESCAT",
            "MISTAT",
            "MIREASND",
            "MISPEC",
            "MISPCCND",
            "MISPCUFL",
            "MISEV",
            "MIDTC",
            "MIDY"
          ],
          "populatedColumns": [
            "STUDYID",
            "DOMAIN",
            "USUBJID",
            "MISEQ",
            "MIGRPID",
            "MIREFID",
            "MITESTCD",
            "MITEST",
            "MIORRES",
            "MISTRESC",
            "MIRESCAT",
            "MISTAT",
            "MIREASND",
            "MISPEC",
            "MISEV",
            "MIDTC",
            "MIDY"
          ],
          "subjectCount": 10,
          "identityFields": [
            "STUDYID",
            "DOMAIN",
            "USUBJID"
          ],
          "timingFields": [
            "MIDTC",
            "MIDY"
          ],
          "relationshipFields": [],
          "referenceRangeFields": [],
          "unitFields": [],
          "columnProfile": {
            "STUDYID": {
              "populated": 242,
              "missing": 0,
              "distinctPopulated": 1,
              "sampleValues": [
                "Study ID"
              ]
            },
            "DOMAIN": {
              "populated": 242,
              "missing": 0,
              "distinctPopulated": 1,
              "sampleValues": [
                "MI"
              ]
            },
            "USUBJID": {
              "populated": 242,
              "missing": 0,
              "distinctPopulated": 10,
              "sampleValues": [
                "Study ID-1002",
                "Study ID-1004",
                "Study ID-2002",
                "Study ID-2004",
                "Study ID-3002",
                "Study ID-3004",
                "Study ID-4002",
                "Study ID-4004",
                "Study ID-5002",
                "Study ID-5004"
              ]
            },
            "MISEQ": {
              "populated": 242,
              "missing": 0,
              "distinctPopulated": 242
            },
            "MIGRPID": {
              "populated": 242,
              "missing": 0,
              "distinctPopulated": 230
            },
            "MIREFID": {
              "populated": 242,
              "missing": 0,
              "distinctPopulated": 230
            },
            "MITESTCD": {
              "populated": 242,
              "missing": 0,
              "distinctPopulated": 1
            },
            "MITEST": {
              "populated": 242,
              "missing": 0,
              "distinctPopulated": 1
            },
            "MIORRES": {
              "populated": 241,
              "missing": 1,
              "distinctPopulated": 36
            },
            "MISTRESC": {
              "populated": 241,
              "missing": 1,
              "distinctPopulated": 18
            },
            "MIRESCAT": {
              "populated": 56,
              "missing": 186,
              "distinctPopulated": 1,
              "sampleValues": [
                "NON-NEOPLASTIC"
              ]
            },
            "MISTAT": {
              "populated": 1,
              "missing": 241,
              "distinctPopulated": 1,
              "sampleValues": [
                "NOT DONE"
              ]
            },
            "MIREASND": {
              "populated": 1,
              "missing": 241,
              "distinctPopulated": 1
            },
            "MISPEC": {
              "populated": 242,
              "missing": 0,
              "distinctPopulated": 23,
              "sampleValues": [
                "BONE MARROW",
                "BONE",
                "BRAIN",
                "EYE",
                "GALLBLADDER",
                "GLAND, ADRENAL",
                "GLAND, MAMMARY",
                "HEART",
                "KIDNEY",
                "LARGE INTESTINE, CECUM",
                "LARGE INTESTINE, COLON",
                "LIVER"
              ]
            },
            "MISPCCND": {
              "populated": 0,
              "missing": 242,
              "distinctPopulated": 0
            },
            "MISPCUFL": {
              "populated": 0,
              "missing": 242,
              "distinctPopulated": 0
            },
            "MISEV": {
              "populated": 56,
              "missing": 186,
              "distinctPopulated": 3,
              "sampleValues": [
                "MILD",
                "MINIMAL",
                "MODERATE"
              ]
            },
            "MIDTC": {
              "populated": 242,
              "missing": 0,
              "distinctPopulated": 10
            },
            "MIDY": {
              "populated": 242,
              "missing": 0,
              "distinctPopulated": 1
            }
          },
          "sourceSystem": {
            "name": "pyreadstat",
            "version": "1.3.6"
          },
          "tableName": "MI"
        },
        {
          "domain": "OM",
          "path": "data/studies/FFU-Contribution-to-FDA/om.xpt",
          "bytes": 28320,
          "sha256": "6c392e67afc36acdbdd93aeaba3f815fcf4be4317c776257e1be57fcebbae534",
          "rows": 200,
          "columns": [
            "STUDYID",
            "DOMAIN",
            "USUBJID",
            "OMSEQ",
            "OMTESTCD",
            "OMTEST",
            "OMORRES",
            "OMORRESU",
            "OMSTRESC",
            "OMSTRESN",
            "OMSTRESU",
            "OMSPEC",
            "OMDTC",
            "OMDY"
          ],
          "populatedColumns": [
            "STUDYID",
            "DOMAIN",
            "USUBJID",
            "OMSEQ",
            "OMTESTCD",
            "OMTEST",
            "OMORRES",
            "OMORRESU",
            "OMSTRESC",
            "OMSTRESN",
            "OMSTRESU",
            "OMSPEC",
            "OMDTC",
            "OMDY"
          ],
          "subjectCount": 10,
          "identityFields": [
            "STUDYID",
            "DOMAIN",
            "USUBJID"
          ],
          "timingFields": [
            "OMDTC",
            "OMDY"
          ],
          "relationshipFields": [],
          "referenceRangeFields": [],
          "unitFields": [
            "OMORRESU",
            "OMSTRESU"
          ],
          "columnProfile": {
            "STUDYID": {
              "populated": 200,
              "missing": 0,
              "distinctPopulated": 1,
              "sampleValues": [
                "Study ID"
              ]
            },
            "DOMAIN": {
              "populated": 200,
              "missing": 0,
              "distinctPopulated": 1,
              "sampleValues": [
                "OM"
              ]
            },
            "USUBJID": {
              "populated": 200,
              "missing": 0,
              "distinctPopulated": 10,
              "sampleValues": [
                "Study ID-1002",
                "Study ID-1004",
                "Study ID-2002",
                "Study ID-2004",
                "Study ID-3002",
                "Study ID-3004",
                "Study ID-4002",
                "Study ID-4004",
                "Study ID-5002",
                "Study ID-5004"
              ]
            },
            "OMSEQ": {
              "populated": 200,
              "missing": 0,
              "distinctPopulated": 200
            },
            "OMTESTCD": {
              "populated": 200,
              "missing": 0,
              "distinctPopulated": 2
            },
            "OMTEST": {
              "populated": 200,
              "missing": 0,
              "distinctPopulated": 2
            },
            "OMORRES": {
              "populated": 200,
              "missing": 0,
              "distinctPopulated": 173
            },
            "OMORRESU": {
              "populated": 200,
              "missing": 0,
              "distinctPopulated": 2,
              "sampleValues": [
                "%",
                "g"
              ]
            },
            "OMSTRESC": {
              "populated": 200,
              "missing": 0,
              "distinctPopulated": 173
            },
            "OMSTRESN": {
              "populated": 200,
              "missing": 0,
              "distinctPopulated": 173
            },
            "OMSTRESU": {
              "populated": 200,
              "missing": 0,
              "distinctPopulated": 2,
              "sampleValues": [
                "%",
                "g"
              ]
            },
            "OMSPEC": {
              "populated": 200,
              "missing": 0,
              "distinctPopulated": 10,
              "sampleValues": [
                "BRAIN",
                "GLAND, ADRENAL",
                "GLAND, PITUITARY",
                "GLAND, THYROID",
                "HEART",
                "KIDNEY",
                "LIVER",
                "OVARY",
                "SPLEEN",
                "THYMUS"
              ]
            },
            "OMDTC": {
              "populated": 200,
              "missing": 0,
              "distinctPopulated": 100
            },
            "OMDY": {
              "populated": 200,
              "missing": 0,
              "distinctPopulated": 1
            }
          },
          "sourceSystem": {
            "name": "pyreadstat",
            "version": "1.3.6"
          },
          "tableName": "OM"
        },
        {
          "domain": "PC",
          "path": "data/studies/FFU-Contribution-to-FDA/pc.xpt",
          "bytes": 163760,
          "sha256": "33540e7bd7e0cb49585179a0de8e55ad5046cd5e5ce6ca8d135d63e7fbbee194",
          "rows": 480,
          "columns": [
            "STUDYID",
            "DOMAIN",
            "USUBJID",
            "PCSEQ",
            "PCTESTCD",
            "PCTEST",
            "PCORRES",
            "PCORRESU",
            "PCSTRESC",
            "PCSTRESN",
            "PCSTRESU",
            "PCSTAT",
            "PCREASND",
            "PCNAM",
            "PCSPEC",
            "PCMETHOD",
            "PCBLFL",
            "PCLLOQ",
            "VISITDY",
            "PCDTC",
            "PCDY",
            "PCTPT",
            "PCTPTNUM",
            "PCELTM",
            "PCTPTREF",
            "PCRFTDTC"
          ],
          "populatedColumns": [
            "STUDYID",
            "DOMAIN",
            "USUBJID",
            "PCSEQ",
            "PCTESTCD",
            "PCTEST",
            "PCORRES",
            "PCORRESU",
            "PCSTRESC",
            "PCSTRESN",
            "PCSTRESU",
            "PCSTAT",
            "PCREASND",
            "PCNAM",
            "PCSPEC",
            "PCMETHOD",
            "PCLLOQ",
            "VISITDY",
            "PCDTC",
            "PCDY",
            "PCTPT",
            "PCTPTNUM",
            "PCELTM",
            "PCTPTREF",
            "PCRFTDTC"
          ],
          "subjectCount": 8,
          "identityFields": [
            "STUDYID",
            "DOMAIN",
            "USUBJID"
          ],
          "timingFields": [
            "VISITDY",
            "PCDTC",
            "PCDY",
            "PCTPT",
            "PCTPTNUM",
            "PCRFTDTC"
          ],
          "relationshipFields": [],
          "referenceRangeFields": [],
          "unitFields": [
            "PCORRESU",
            "PCSTRESU"
          ],
          "columnProfile": {
            "STUDYID": {
              "populated": 480,
              "missing": 0,
              "distinctPopulated": 1,
              "sampleValues": [
                "Study ID"
              ]
            },
            "DOMAIN": {
              "populated": 480,
              "missing": 0,
              "distinctPopulated": 1,
              "sampleValues": [
                "PC"
              ]
            },
            "USUBJID": {
              "populated": 480,
              "missing": 0,
              "distinctPopulated": 8,
              "sampleValues": [
                "Study ID-2002",
                "Study ID-2004",
                "Study ID-3002",
                "Study ID-3004",
                "Study ID-4002",
                "Study ID-4004",
                "Study ID-5002",
                "Study ID-5004"
              ]
            },
            "PCSEQ": {
              "populated": 480,
              "missing": 0,
              "distinctPopulated": 60
            },
            "PCTESTCD": {
              "populated": 480,
              "missing": 0,
              "distinctPopulated": 12
            },
            "PCTEST": {
              "populated": 480,
              "missing": 0,
              "distinctPopulated": 12
            },
            "PCORRES": {
              "populated": 464,
              "missing": 16,
              "distinctPopulated": 339
            },
            "PCORRESU": {
              "populated": 464,
              "missing": 16,
              "distinctPopulated": 2,
              "sampleValues": [
                "ng/mL",
                "ug/mL"
              ]
            },
            "PCSTRESC": {
              "populated": 464,
              "missing": 16,
              "distinctPopulated": 339
            },
            "PCSTRESN": {
              "populated": 371,
              "missing": 109,
              "distinctPopulated": 338
            },
            "PCSTRESU": {
              "populated": 464,
              "missing": 16,
              "distinctPopulated": 2,
              "sampleValues": [
                "ng/mL",
                "ug/mL"
              ]
            },
            "PCSTAT": {
              "populated": 16,
              "missing": 464,
              "distinctPopulated": 1,
              "sampleValues": [
                "NOT DONE"
              ]
            },
            "PCREASND": {
              "populated": 16,
              "missing": 464,
              "distinctPopulated": 1
            },
            "PCNAM": {
              "populated": 480,
              "missing": 0,
              "distinctPopulated": 1
            },
            "PCSPEC": {
              "populated": 480,
              "missing": 0,
              "distinctPopulated": 2,
              "sampleValues": [
                "PLASMA",
                "SERUM"
              ]
            },
            "PCMETHOD": {
              "populated": 480,
              "missing": 0,
              "distinctPopulated": 2,
              "sampleValues": [
                "HPLC-MS/MS analysis",
                "MSD assay with electrochemiluminescent"
              ]
            },
            "PCBLFL": {
              "populated": 0,
              "missing": 480,
              "distinctPopulated": 0
            },
            "PCLLOQ": {
              "populated": 480,
              "missing": 0,
              "distinctPopulated": 2
            },
            "VISITDY": {
              "populated": 480,
              "missing": 0,
              "distinctPopulated": 2,
              "sampleValues": [
                1,
                22
              ]
            },
            "PCDTC": {
              "populated": 480,
              "missing": 0,
              "distinctPopulated": 103
            },
            "PCDY": {
              "populated": 480,
              "missing": 0,
              "distinctPopulated": 11
            },
            "PCTPT": {
              "populated": 480,
              "missing": 0,
              "distinctPopulated": 9
            },
            "PCTPTNUM": {
              "populated": 480,
              "missing": 0,
              "distinctPopulated": 8
            },
            "PCELTM": {
              "populated": 480,
              "missing": 0,
              "distinctPopulated": 9
            },
            "PCTPTREF": {
              "populated": 480,
              "missing": 0,
              "distinctPopulated": 2
            },
            "PCRFTDTC": {
              "populated": 480,
              "missing": 0,
              "distinctPopulated": 16
            }
          },
          "sourceSystem": {
            "name": "pyreadstat",
            "version": "1.3.6"
          },
          "tableName": "PC"
        },
        {
          "domain": "PP",
          "path": "data/studies/FFU-Contribution-to-FDA/pp.xpt",
          "bytes": 91120,
          "sha256": "60480bc62f599bb4d1051391eed5868df25d15950639f0163111f00c942a8a3a",
          "rows": 384,
          "columns": [
            "STUDYID",
            "DOMAIN",
            "USUBJID",
            "PPSEQ",
            "PPTESTCD",
            "PPTEST",
            "PPCAT",
            "PPORRES",
            "PPORRESU",
            "PPSTRESC",
            "PPSTRESN",
            "PPSTRESU",
            "PPSTAT",
            "PPREASND",
            "PPSPEC",
            "VISITDY",
            "PPTPTREF",
            "PPRFTDTC",
            "PPSTINT",
            "PPENINT"
          ],
          "populatedColumns": [
            "STUDYID",
            "DOMAIN",
            "USUBJID",
            "PPSEQ",
            "PPTESTCD",
            "PPTEST",
            "PPCAT",
            "PPORRES",
            "PPORRESU",
            "PPSTRESC",
            "PPSTRESN",
            "PPSTRESU",
            "PPSTAT",
            "PPREASND",
            "PPSPEC",
            "VISITDY",
            "PPTPTREF",
            "PPRFTDTC",
            "PPSTINT",
            "PPENINT"
          ],
          "subjectCount": 8,
          "identityFields": [
            "STUDYID",
            "DOMAIN",
            "USUBJID"
          ],
          "timingFields": [
            "VISITDY",
            "PPRFTDTC"
          ],
          "relationshipFields": [],
          "referenceRangeFields": [],
          "unitFields": [
            "PPORRESU",
            "PPSTRESU"
          ],
          "columnProfile": {
            "STUDYID": {
              "populated": 384,
              "missing": 0,
              "distinctPopulated": 1,
              "sampleValues": [
                "Study ID"
              ]
            },
            "DOMAIN": {
              "populated": 384,
              "missing": 0,
              "distinctPopulated": 1,
              "sampleValues": [
                "PP"
              ]
            },
            "USUBJID": {
              "populated": 384,
              "missing": 0,
              "distinctPopulated": 8,
              "sampleValues": [
                "Study ID-2002",
                "Study ID-2004",
                "Study ID-3002",
                "Study ID-3004",
                "Study ID-4002",
                "Study ID-4004",
                "Study ID-5002",
                "Study ID-5004"
              ]
            },
            "PPSEQ": {
              "populated": 384,
              "missing": 0,
              "distinctPopulated": 48
            },
            "PPTESTCD": {
              "populated": 384,
              "missing": 0,
              "distinctPopulated": 8
            },
            "PPTEST": {
              "populated": 384,
              "missing": 0,
              "distinctPopulated": 8
            },
            "PPCAT": {
              "populated": 384,
              "missing": 0,
              "distinctPopulated": 4,
              "sampleValues": [
                "ADC Associated Warhead Concentration",
                "Conjugated Concentration",
                "Free MMAE Concentration",
                "Total Concentration"
              ]
            },
            "PPORRES": {
              "populated": 320,
              "missing": 64,
              "distinctPopulated": 247
            },
            "PPORRESU": {
              "populated": 320,
              "missing": 64,
              "distinctPopulated": 8,
              "sampleValues": [
                "day",
                "h",
                "h*mg/mL",
                "h*mg/mL/(mg/kg)",
                "ng/mL",
                "ng/mL/(mg/day)",
                "ug/mL",
                "ug/mL/(mg/kg)"
              ]
            },
            "PPSTRESC": {
              "populated": 320,
              "missing": 64,
              "distinctPopulated": 247
            },
            "PPSTRESN": {
              "populated": 320,
              "missing": 64,
              "distinctPopulated": 247
            },
            "PPSTRESU": {
              "populated": 320,
              "missing": 64,
              "distinctPopulated": 8,
              "sampleValues": [
                "day",
                "h",
                "h*mg/mL",
                "h*mg/mL/(mg/kg)",
                "ng/mL",
                "ng/mL/(mg/day)",
                "ug/mL",
                "ug/mL/(mg/kg)"
              ]
            },
            "PPSTAT": {
              "populated": 64,
              "missing": 320,
              "distinctPopulated": 1,
              "sampleValues": [
                "NOT DONE"
              ]
            },
            "PPREASND": {
              "populated": 64,
              "missing": 320,
              "distinctPopulated": 1
            },
            "PPSPEC": {
              "populated": 384,
              "missing": 0,
              "distinctPopulated": 2,
              "sampleValues": [
                "PLASMA",
                "SERUM"
              ]
            },
            "VISITDY": {
              "populated": 384,
              "missing": 0,
              "distinctPopulated": 2,
              "sampleValues": [
                1,
                22
              ]
            },
            "PPTPTREF": {
              "populated": 384,
              "missing": 0,
              "distinctPopulated": 2
            },
            "PPRFTDTC": {
              "populated": 384,
              "missing": 0,
              "distinctPopulated": 16
            },
            "PPSTINT": {
              "populated": 192,
              "missing": 192,
              "distinctPopulated": 1
            },
            "PPENINT": {
              "populated": 192,
              "missing": 192,
              "distinctPopulated": 2
            }
          },
          "sourceSystem": {
            "name": "pyreadstat",
            "version": "1.3.6"
          },
          "tableName": "PP"
        },
        {
          "domain": "SE",
          "path": "data/studies/FFU-Contribution-to-FDA/se.xpt",
          "bytes": 3680,
          "sha256": "c9fb0a73d39d121fc4d808184eea2f2afa5c7ba1a6a89b02b563a55fd3839716",
          "rows": 20,
          "columns": [
            "STUDYID",
            "DOMAIN",
            "USUBJID",
            "SESEQ",
            "ETCD",
            "ELEMENT",
            "SESTDTC",
            "SEENDTC"
          ],
          "populatedColumns": [
            "STUDYID",
            "DOMAIN",
            "USUBJID",
            "SESEQ",
            "ETCD",
            "ELEMENT",
            "SESTDTC",
            "SEENDTC"
          ],
          "subjectCount": 10,
          "identityFields": [
            "STUDYID",
            "DOMAIN",
            "USUBJID"
          ],
          "timingFields": [
            "ETCD",
            "ELEMENT",
            "SESTDTC",
            "SEENDTC"
          ],
          "relationshipFields": [],
          "referenceRangeFields": [],
          "unitFields": [],
          "columnProfile": {
            "STUDYID": {
              "populated": 20,
              "missing": 0,
              "distinctPopulated": 1,
              "sampleValues": [
                "Study ID"
              ]
            },
            "DOMAIN": {
              "populated": 20,
              "missing": 0,
              "distinctPopulated": 1,
              "sampleValues": [
                "SE"
              ]
            },
            "USUBJID": {
              "populated": 20,
              "missing": 0,
              "distinctPopulated": 10,
              "sampleValues": [
                "Study ID-1002",
                "Study ID-1004",
                "Study ID-2002",
                "Study ID-2004",
                "Study ID-3002",
                "Study ID-3004",
                "Study ID-4002",
                "Study ID-4004",
                "Study ID-5002",
                "Study ID-5004"
              ]
            },
            "SESEQ": {
              "populated": 20,
              "missing": 0,
              "distinctPopulated": 2
            },
            "ETCD": {
              "populated": 20,
              "missing": 0,
              "distinctPopulated": 6,
              "sampleValues": [
                "PHb",
                "TR1d",
                "TR2d",
                "TR3d",
                "TR4d",
                "TR5d"
              ]
            },
            "ELEMENT": {
              "populated": 20,
              "missing": 0,
              "distinctPopulated": 6,
              "sampleValues": [
                "Baseline",
                "G1 - Compound: F: 0 mg/kg",
                "G2 - Compound 1: F: 12 mg/kg",
                "G3 - Compound 2: F: 4 mg/kg",
                "G4 - Compound 2: F: 8 mg/kg",
                "G5 - Compound 3: F: 6 mg/kg"
              ]
            },
            "SESTDTC": {
              "populated": 20,
              "missing": 0,
              "distinctPopulated": 2
            },
            "SEENDTC": {
              "populated": 20,
              "missing": 0,
              "distinctPopulated": 11
            }
          },
          "sourceSystem": {
            "name": "pyreadstat",
            "version": "1.3.6"
          },
          "tableName": "SE"
        },
        {
          "domain": "SUPPBG",
          "path": "data/studies/FFU-Contribution-to-FDA/suppbg.xpt",
          "bytes": 28800,
          "sha256": "0fc18a2ef4bd3e77e4e244fe3f9aabe6cd1b9d85edafee595c3cf9bd87d8b774",
          "rows": 360,
          "columns": [
            "STUDYID",
            "RDOMAIN",
            "USUBJID",
            "IDVAR",
            "IDVARVAL",
            "QNAM",
            "QLABEL",
            "QVAL",
            "QORIG",
            "QEVAL"
          ],
          "populatedColumns": [
            "STUDYID",
            "RDOMAIN",
            "USUBJID",
            "IDVAR",
            "IDVARVAL",
            "QNAM",
            "QLABEL",
            "QVAL",
            "QORIG"
          ],
          "subjectCount": 10,
          "identityFields": [
            "STUDYID",
            "USUBJID"
          ],
          "timingFields": [],
          "relationshipFields": [
            "RDOMAIN",
            "IDVAR",
            "IDVARVAL"
          ],
          "referenceRangeFields": [],
          "unitFields": [],
          "columnProfile": {
            "STUDYID": {
              "populated": 360,
              "missing": 0,
              "distinctPopulated": 1,
              "sampleValues": [
                "Study ID"
              ]
            },
            "RDOMAIN": {
              "populated": 360,
              "missing": 0,
              "distinctPopulated": 1,
              "sampleValues": [
                "BG"
              ]
            },
            "USUBJID": {
              "populated": 360,
              "missing": 0,
              "distinctPopulated": 10,
              "sampleValues": [
                "Study ID-1002",
                "Study ID-1004",
                "Study ID-2002",
                "Study ID-2004",
                "Study ID-3002",
                "Study ID-3004",
                "Study ID-4002",
                "Study ID-4004",
                "Study ID-5002",
                "Study ID-5004"
              ]
            },
            "IDVAR": {
              "populated": 360,
              "missing": 0,
              "distinctPopulated": 1,
              "sampleValues": [
                "BGSEQ"
              ]
            },
            "IDVARVAL": {
              "populated": 360,
              "missing": 0,
              "distinctPopulated": 90,
              "sampleValues": [
                "1",
                "10",
                "11",
                "12",
                "13",
                "14",
                "15",
                "16",
                "17",
                "18",
                "19",
                "2"
              ]
            },
            "QNAM": {
              "populated": 360,
              "missing": 0,
              "distinctPopulated": 4
            },
            "QLABEL": {
              "populated": 360,
              "missing": 0,
              "distinctPopulated": 4
            },
            "QVAL": {
              "populated": 360,
              "missing": 0,
              "distinctPopulated": 11
            },
            "QORIG": {
              "populated": 360,
              "missing": 0,
              "distinctPopulated": 1
            },
            "QEVAL": {
              "populated": 0,
              "missing": 360,
              "distinctPopulated": 0
            }
          },
          "sourceSystem": {
            "name": "pyreadstat",
            "version": "1.3.6"
          },
          "tableName": "SUPPBG"
        },
        {
          "domain": "SUPPBW",
          "path": "data/studies/FFU-Contribution-to-FDA/suppbw.xpt",
          "bytes": 17360,
          "sha256": "4500e98fec8592bb7981b999f5b28d606fb2589294eb9308852c2dee3497dc7a",
          "rows": 220,
          "columns": [
            "STUDYID",
            "RDOMAIN",
            "USUBJID",
            "IDVAR",
            "IDVARVAL",
            "QNAM",
            "QLABEL",
            "QVAL",
            "QORIG",
            "QEVAL"
          ],
          "populatedColumns": [
            "STUDYID",
            "RDOMAIN",
            "USUBJID",
            "IDVAR",
            "IDVARVAL",
            "QNAM",
            "QLABEL",
            "QVAL",
            "QORIG"
          ],
          "subjectCount": 10,
          "identityFields": [
            "STUDYID",
            "USUBJID"
          ],
          "timingFields": [],
          "relationshipFields": [
            "RDOMAIN",
            "IDVAR",
            "IDVARVAL"
          ],
          "referenceRangeFields": [],
          "unitFields": [],
          "columnProfile": {
            "STUDYID": {
              "populated": 220,
              "missing": 0,
              "distinctPopulated": 1,
              "sampleValues": [
                "Study ID"
              ]
            },
            "RDOMAIN": {
              "populated": 220,
              "missing": 0,
              "distinctPopulated": 1,
              "sampleValues": [
                "BW"
              ]
            },
            "USUBJID": {
              "populated": 220,
              "missing": 0,
              "distinctPopulated": 10,
              "sampleValues": [
                "Study ID-1002",
                "Study ID-1004",
                "Study ID-2002",
                "Study ID-2004",
                "Study ID-3002",
                "Study ID-3004",
                "Study ID-4002",
                "Study ID-4004",
                "Study ID-5002",
                "Study ID-5004"
              ]
            },
            "IDVAR": {
              "populated": 220,
              "missing": 0,
              "distinctPopulated": 1,
              "sampleValues": [
                "BWSEQ"
              ]
            },
            "IDVARVAL": {
              "populated": 220,
              "missing": 0,
              "distinctPopulated": 110,
              "sampleValues": [
                "1",
                "10",
                "100",
                "101",
                "102",
                "103",
                "104",
                "105",
                "106",
                "107",
                "108",
                "109"
              ]
            },
            "QNAM": {
              "populated": 220,
              "missing": 0,
              "distinctPopulated": 2
            },
            "QLABEL": {
              "populated": 220,
              "missing": 0,
              "distinctPopulated": 2
            },
            "QVAL": {
              "populated": 220,
              "missing": 0,
              "distinctPopulated": 12
            },
            "QORIG": {
              "populated": 220,
              "missing": 0,
              "distinctPopulated": 1
            },
            "QEVAL": {
              "populated": 0,
              "missing": 220,
              "distinctPopulated": 0
            }
          },
          "sourceSystem": {
            "name": "pyreadstat",
            "version": "1.3.6"
          },
          "tableName": "SUPPBW"
        },
        {
          "domain": "SUPPCL",
          "path": "data/studies/FFU-Contribution-to-FDA/suppcl.xpt",
          "bytes": 37920,
          "sha256": "b8b6efd2249efdc81b72ff357c836306fa4c3eab6fb3ea0e1423d9eef4598594",
          "rows": 518,
          "columns": [
            "STUDYID",
            "RDOMAIN",
            "USUBJID",
            "IDVAR",
            "IDVARVAL",
            "QNAM",
            "QLABEL",
            "QVAL",
            "QORIG",
            "QEVAL"
          ],
          "populatedColumns": [
            "STUDYID",
            "RDOMAIN",
            "USUBJID",
            "IDVAR",
            "IDVARVAL",
            "QNAM",
            "QLABEL",
            "QVAL",
            "QORIG"
          ],
          "subjectCount": 10,
          "identityFields": [
            "STUDYID",
            "USUBJID"
          ],
          "timingFields": [],
          "relationshipFields": [
            "RDOMAIN",
            "IDVAR",
            "IDVARVAL"
          ],
          "referenceRangeFields": [],
          "unitFields": [],
          "columnProfile": {
            "STUDYID": {
              "populated": 518,
              "missing": 0,
              "distinctPopulated": 1,
              "sampleValues": [
                "Study ID"
              ]
            },
            "RDOMAIN": {
              "populated": 518,
              "missing": 0,
              "distinctPopulated": 1,
              "sampleValues": [
                "CL"
              ]
            },
            "USUBJID": {
              "populated": 518,
              "missing": 0,
              "distinctPopulated": 10,
              "sampleValues": [
                "Study ID-1002",
                "Study ID-1004",
                "Study ID-2002",
                "Study ID-2004",
                "Study ID-3002",
                "Study ID-3004",
                "Study ID-4002",
                "Study ID-4004",
                "Study ID-5002",
                "Study ID-5004"
              ]
            },
            "IDVAR": {
              "populated": 518,
              "missing": 0,
              "distinctPopulated": 1,
              "sampleValues": [
                "CLSEQ"
              ]
            },
            "IDVARVAL": {
              "populated": 518,
              "missing": 0,
              "distinctPopulated": 259,
              "sampleValues": [
                "1",
                "10",
                "100",
                "101",
                "102",
                "103",
                "104",
                "105",
                "106",
                "107",
                "108",
                "109"
              ]
            },
            "QNAM": {
              "populated": 518,
              "missing": 0,
              "distinctPopulated": 2
            },
            "QLABEL": {
              "populated": 518,
              "missing": 0,
              "distinctPopulated": 2
            },
            "QVAL": {
              "populated": 518,
              "missing": 0,
              "distinctPopulated": 19
            },
            "QORIG": {
              "populated": 518,
              "missing": 0,
              "distinctPopulated": 1
            },
            "QEVAL": {
              "populated": 0,
              "missing": 518,
              "distinctPopulated": 0
            }
          },
          "sourceSystem": {
            "name": "pyreadstat",
            "version": "1.3.6"
          },
          "tableName": "SUPPCL"
        },
        {
          "domain": "SUPPDS",
          "path": "data/studies/FFU-Contribution-to-FDA/suppds.xpt",
          "bytes": 3520,
          "sha256": "6c335a4254e78dfc5c95b3f0434873eb82ef6c0eebd3fa4b893b4745fe160368",
          "rows": 20,
          "columns": [
            "STUDYID",
            "RDOMAIN",
            "USUBJID",
            "IDVAR",
            "IDVARVAL",
            "QNAM",
            "QLABEL",
            "QVAL",
            "QORIG",
            "QEVAL"
          ],
          "populatedColumns": [
            "STUDYID",
            "RDOMAIN",
            "USUBJID",
            "IDVAR",
            "IDVARVAL",
            "QNAM",
            "QLABEL",
            "QVAL",
            "QORIG"
          ],
          "subjectCount": 10,
          "identityFields": [
            "STUDYID",
            "USUBJID"
          ],
          "timingFields": [],
          "relationshipFields": [
            "RDOMAIN",
            "IDVAR",
            "IDVARVAL"
          ],
          "referenceRangeFields": [],
          "unitFields": [],
          "columnProfile": {
            "STUDYID": {
              "populated": 20,
              "missing": 0,
              "distinctPopulated": 1,
              "sampleValues": [
                "Study ID"
              ]
            },
            "RDOMAIN": {
              "populated": 20,
              "missing": 0,
              "distinctPopulated": 1,
              "sampleValues": [
                "DS"
              ]
            },
            "USUBJID": {
              "populated": 20,
              "missing": 0,
              "distinctPopulated": 10,
              "sampleValues": [
                "Study ID-1002",
                "Study ID-1004",
                "Study ID-2002",
                "Study ID-2004",
                "Study ID-3002",
                "Study ID-3004",
                "Study ID-4002",
                "Study ID-4004",
                "Study ID-5002",
                "Study ID-5004"
              ]
            },
            "IDVAR": {
              "populated": 20,
              "missing": 0,
              "distinctPopulated": 1,
              "sampleValues": [
                "DSSEQ"
              ]
            },
            "IDVARVAL": {
              "populated": 20,
              "missing": 0,
              "distinctPopulated": 10,
              "sampleValues": [
                "1",
                "10",
                "2",
                "3",
                "4",
                "5",
                "6",
                "7",
                "8",
                "9"
              ]
            },
            "QNAM": {
              "populated": 20,
              "missing": 0,
              "distinctPopulated": 2
            },
            "QLABEL": {
              "populated": 20,
              "missing": 0,
              "distinctPopulated": 2
            },
            "QVAL": {
              "populated": 20,
              "missing": 0,
              "distinctPopulated": 2
            },
            "QORIG": {
              "populated": 20,
              "missing": 0,
              "distinctPopulated": 1
            },
            "QEVAL": {
              "populated": 0,
              "missing": 20,
              "distinctPopulated": 0
            }
          },
          "sourceSystem": {
            "name": "pyreadstat",
            "version": "1.3.6"
          },
          "tableName": "SUPPDS"
        },
        {
          "domain": "SUPPLB",
          "path": "data/studies/FFU-Contribution-to-FDA/supplb.xpt",
          "bytes": 286640,
          "sha256": "ffc203d0c8aef4c20a16640b40eb88613ea52fe3cefabff8d6ab1ab6e55600fb",
          "rows": 4064,
          "columns": [
            "STUDYID",
            "RDOMAIN",
            "USUBJID",
            "IDVAR",
            "IDVARVAL",
            "QNAM",
            "QLABEL",
            "QVAL",
            "QORIG",
            "QEVAL"
          ],
          "populatedColumns": [
            "STUDYID",
            "RDOMAIN",
            "USUBJID",
            "IDVAR",
            "IDVARVAL",
            "QNAM",
            "QLABEL",
            "QVAL",
            "QORIG"
          ],
          "subjectCount": 10,
          "identityFields": [
            "STUDYID",
            "USUBJID"
          ],
          "timingFields": [],
          "relationshipFields": [
            "RDOMAIN",
            "IDVAR",
            "IDVARVAL"
          ],
          "referenceRangeFields": [],
          "unitFields": [],
          "columnProfile": {
            "STUDYID": {
              "populated": 4064,
              "missing": 0,
              "distinctPopulated": 1,
              "sampleValues": [
                "Study ID"
              ]
            },
            "RDOMAIN": {
              "populated": 4064,
              "missing": 0,
              "distinctPopulated": 1,
              "sampleValues": [
                "LB"
              ]
            },
            "USUBJID": {
              "populated": 4064,
              "missing": 0,
              "distinctPopulated": 10,
              "sampleValues": [
                "Study ID-1002",
                "Study ID-1004",
                "Study ID-2002",
                "Study ID-2004",
                "Study ID-3002",
                "Study ID-3004",
                "Study ID-4002",
                "Study ID-4004",
                "Study ID-5002",
                "Study ID-5004"
              ]
            },
            "IDVAR": {
              "populated": 4064,
              "missing": 0,
              "distinctPopulated": 1,
              "sampleValues": [
                "LBSEQ"
              ]
            },
            "IDVARVAL": {
              "populated": 4064,
              "missing": 0,
              "distinctPopulated": 2032,
              "sampleValues": [
                "1",
                "10",
                "100",
                "1000",
                "1001",
                "1002",
                "1003",
                "1004",
                "1005",
                "1006",
                "1007",
                "1008"
              ]
            },
            "QNAM": {
              "populated": 4064,
              "missing": 0,
              "distinctPopulated": 2
            },
            "QLABEL": {
              "populated": 4064,
              "missing": 0,
              "distinctPopulated": 2
            },
            "QVAL": {
              "populated": 4064,
              "missing": 0,
              "distinctPopulated": 8
            },
            "QORIG": {
              "populated": 4064,
              "missing": 0,
              "distinctPopulated": 1
            },
            "QEVAL": {
              "populated": 0,
              "missing": 4064,
              "distinctPopulated": 0
            }
          },
          "sourceSystem": {
            "name": "pyreadstat",
            "version": "1.3.6"
          },
          "tableName": "SUPPLB"
        },
        {
          "domain": "SUPPMA",
          "path": "data/studies/FFU-Contribution-to-FDA/suppma.xpt",
          "bytes": 2480,
          "sha256": "cf05d9f9880ea05720e7346e5120b8a81096008b838b784c4a3799f52a9c218f",
          "rows": 3,
          "columns": [
            "STUDYID",
            "RDOMAIN",
            "USUBJID",
            "IDVAR",
            "IDVARVAL",
            "QNAM",
            "QLABEL",
            "QVAL",
            "QORIG",
            "QEVAL"
          ],
          "populatedColumns": [
            "STUDYID",
            "RDOMAIN",
            "USUBJID",
            "IDVAR",
            "IDVARVAL",
            "QNAM",
            "QLABEL",
            "QVAL",
            "QORIG"
          ],
          "subjectCount": 2,
          "identityFields": [
            "STUDYID",
            "USUBJID"
          ],
          "timingFields": [],
          "relationshipFields": [
            "RDOMAIN",
            "IDVAR",
            "IDVARVAL"
          ],
          "referenceRangeFields": [],
          "unitFields": [],
          "columnProfile": {
            "STUDYID": {
              "populated": 3,
              "missing": 0,
              "distinctPopulated": 1,
              "sampleValues": [
                "Study ID"
              ]
            },
            "RDOMAIN": {
              "populated": 3,
              "missing": 0,
              "distinctPopulated": 1,
              "sampleValues": [
                "MA"
              ]
            },
            "USUBJID": {
              "populated": 3,
              "missing": 0,
              "distinctPopulated": 2,
              "sampleValues": [
                "Study ID-3002",
                "Study ID-4004"
              ]
            },
            "IDVAR": {
              "populated": 3,
              "missing": 0,
              "distinctPopulated": 1,
              "sampleValues": [
                "MASEQ"
              ]
            },
            "IDVARVAL": {
              "populated": 3,
              "missing": 0,
              "distinctPopulated": 3,
              "sampleValues": [
                "210",
                "377",
                "405"
              ]
            },
            "QNAM": {
              "populated": 3,
              "missing": 0,
              "distinctPopulated": 1
            },
            "QLABEL": {
              "populated": 3,
              "missing": 0,
              "distinctPopulated": 1
            },
            "QVAL": {
              "populated": 3,
              "missing": 0,
              "distinctPopulated": 3
            },
            "QORIG": {
              "populated": 3,
              "missing": 0,
              "distinctPopulated": 1
            },
            "QEVAL": {
              "populated": 0,
              "missing": 3,
              "distinctPopulated": 0
            }
          },
          "sourceSystem": {
            "name": "pyreadstat",
            "version": "1.3.6"
          },
          "tableName": "SUPPMA"
        },
        {
          "domain": "SUPPMI",
          "path": "data/studies/FFU-Contribution-to-FDA/suppmi.xpt",
          "bytes": 8800,
          "sha256": "9179fa3436de62bb13c36c2e55df67e20a29778111d1693052ba177b63397087",
          "rows": 56,
          "columns": [
            "STUDYID",
            "RDOMAIN",
            "USUBJID",
            "IDVAR",
            "IDVARVAL",
            "QNAM",
            "QLABEL",
            "QVAL",
            "QORIG",
            "QEVAL"
          ],
          "populatedColumns": [
            "STUDYID",
            "RDOMAIN",
            "USUBJID",
            "IDVAR",
            "IDVARVAL",
            "QNAM",
            "QLABEL",
            "QVAL",
            "QORIG"
          ],
          "subjectCount": 10,
          "identityFields": [
            "STUDYID",
            "USUBJID"
          ],
          "timingFields": [],
          "relationshipFields": [
            "RDOMAIN",
            "IDVAR",
            "IDVARVAL"
          ],
          "referenceRangeFields": [],
          "unitFields": [],
          "columnProfile": {
            "STUDYID": {
              "populated": 56,
              "missing": 0,
              "distinctPopulated": 1,
              "sampleValues": [
                "Study ID"
              ]
            },
            "RDOMAIN": {
              "populated": 56,
              "missing": 0,
              "distinctPopulated": 1,
              "sampleValues": [
                "MI"
              ]
            },
            "USUBJID": {
              "populated": 56,
              "missing": 0,
              "distinctPopulated": 10,
              "sampleValues": [
                "Study ID-1002",
                "Study ID-1004",
                "Study ID-2002",
                "Study ID-2004",
                "Study ID-3002",
                "Study ID-3004",
                "Study ID-4002",
                "Study ID-4004",
                "Study ID-5002",
                "Study ID-5004"
              ]
            },
            "IDVAR": {
              "populated": 56,
              "missing": 0,
              "distinctPopulated": 1,
              "sampleValues": [
                "MISEQ"
              ]
            },
            "IDVARVAL": {
              "populated": 56,
              "missing": 0,
              "distinctPopulated": 56,
              "sampleValues": [
                "100",
                "102",
                "104",
                "105",
                "106",
                "122",
                "123",
                "124",
                "126",
                "127",
                "128",
                "129"
              ]
            },
            "QNAM": {
              "populated": 56,
              "missing": 0,
              "distinctPopulated": 1
            },
            "QLABEL": {
              "populated": 56,
              "missing": 0,
              "distinctPopulated": 1
            },
            "QVAL": {
              "populated": 56,
              "missing": 0,
              "distinctPopulated": 30
            },
            "QORIG": {
              "populated": 56,
              "missing": 0,
              "distinctPopulated": 1
            },
            "QEVAL": {
              "populated": 0,
              "missing": 56,
              "distinctPopulated": 0
            }
          },
          "sourceSystem": {
            "name": "pyreadstat",
            "version": "1.3.6"
          },
          "tableName": "SUPPMI"
        },
        {
          "domain": "TA",
          "path": "data/studies/FFU-Contribution-to-FDA/ta.xpt",
          "bytes": 2640,
          "sha256": "0b2d616b145f572a1c68d872e5f3a18ae38a1a298d5342ba3a6ea204fe02fc6e",
          "rows": 10,
          "columns": [
            "STUDYID",
            "DOMAIN",
            "ARMCD",
            "ARM",
            "TAETORD",
            "ETCD",
            "ELEMENT",
            "EPOCH"
          ],
          "populatedColumns": [
            "STUDYID",
            "DOMAIN",
            "ARMCD",
            "ARM",
            "TAETORD",
            "ETCD",
            "ELEMENT",
            "EPOCH"
          ],
          "subjectCount": 0,
          "identityFields": [
            "STUDYID",
            "DOMAIN"
          ],
          "timingFields": [
            "ETCD",
            "ELEMENT",
            "EPOCH"
          ],
          "relationshipFields": [],
          "referenceRangeFields": [],
          "unitFields": [],
          "columnProfile": {
            "STUDYID": {
              "populated": 10,
              "missing": 0,
              "distinctPopulated": 1,
              "sampleValues": [
                "Study ID"
              ]
            },
            "DOMAIN": {
              "populated": 10,
              "missing": 0,
              "distinctPopulated": 1,
              "sampleValues": [
                "TA"
              ]
            },
            "ARMCD": {
              "populated": 10,
              "missing": 0,
              "distinctPopulated": 5
            },
            "ARM": {
              "populated": 10,
              "missing": 0,
              "distinctPopulated": 5
            },
            "TAETORD": {
              "populated": 10,
              "missing": 0,
              "distinctPopulated": 2
            },
            "ETCD": {
              "populated": 10,
              "missing": 0,
              "distinctPopulated": 6,
              "sampleValues": [
                "PHb",
                "TR1d",
                "TR2d",
                "TR3d",
                "TR4d",
                "TR5d"
              ]
            },
            "ELEMENT": {
              "populated": 10,
              "missing": 0,
              "distinctPopulated": 6,
              "sampleValues": [
                "Baseline",
                "G1 - Compound: F: 0 mg/kg",
                "G2 - Compound 1: F: 12 mg/kg",
                "G3 - Compound 2: F: 4 mg/kg",
                "G4 - Compound 2: F: 8 mg/kg",
                "G5 - Compound 3: F: 6 mg/kg"
              ]
            },
            "EPOCH": {
              "populated": 10,
              "missing": 0,
              "distinctPopulated": 2,
              "sampleValues": [
                "Baseline",
                "Dosing"
              ]
            }
          },
          "sourceSystem": {
            "name": "pyreadstat",
            "version": "1.3.6"
          },
          "tableName": "TA"
        },
        {
          "domain": "TE",
          "path": "data/studies/FFU-Contribution-to-FDA/te.xpt",
          "bytes": 2320,
          "sha256": "941902b4288008956e54c901dd66664f79a810b1bcc949bca375c859d1836f3a",
          "rows": 6,
          "columns": [
            "STUDYID",
            "DOMAIN",
            "ETCD",
            "ELEMENT",
            "TESTRL",
            "TEENRL",
            "TEDUR"
          ],
          "populatedColumns": [
            "STUDYID",
            "DOMAIN",
            "ETCD",
            "ELEMENT",
            "TESTRL",
            "TEENRL",
            "TEDUR"
          ],
          "subjectCount": 0,
          "identityFields": [
            "STUDYID",
            "DOMAIN"
          ],
          "timingFields": [
            "ETCD",
            "ELEMENT"
          ],
          "relationshipFields": [],
          "referenceRangeFields": [],
          "unitFields": [],
          "columnProfile": {
            "STUDYID": {
              "populated": 6,
              "missing": 0,
              "distinctPopulated": 1,
              "sampleValues": [
                "Study ID"
              ]
            },
            "DOMAIN": {
              "populated": 6,
              "missing": 0,
              "distinctPopulated": 1,
              "sampleValues": [
                "TE"
              ]
            },
            "ETCD": {
              "populated": 6,
              "missing": 0,
              "distinctPopulated": 6,
              "sampleValues": [
                "PHb",
                "TR1d",
                "TR2d",
                "TR3d",
                "TR4d",
                "TR5d"
              ]
            },
            "ELEMENT": {
              "populated": 6,
              "missing": 0,
              "distinctPopulated": 6,
              "sampleValues": [
                "Baseline",
                "G1 - Compound: F: 0 mg/kg",
                "G2 - Compound 1: F: 12 mg/kg",
                "G3 - Compound 2: F: 4 mg/kg",
                "G4 - Compound 2: F: 8 mg/kg",
                "G5 - Compound 3: F: 6 mg/kg"
              ]
            },
            "TESTRL": {
              "populated": 6,
              "missing": 0,
              "distinctPopulated": 2
            },
            "TEENRL": {
              "populated": 6,
              "missing": 0,
              "distinctPopulated": 2
            },
            "TEDUR": {
              "populated": 6,
              "missing": 0,
              "distinctPopulated": 2
            }
          },
          "sourceSystem": {
            "name": "pyreadstat",
            "version": "1.3.6"
          },
          "tableName": "TE"
        },
        {
          "domain": "TS",
          "path": "data/studies/FFU-Contribution-to-FDA/ts.xpt",
          "bytes": 4800,
          "sha256": "0dbb9768f5593b4f27f78f2c3ee317901d11bf0a9ed5fff4f437d8d9da80f235",
          "rows": 30,
          "columns": [
            "STUDYID",
            "DOMAIN",
            "TSSEQ",
            "TSGRPID",
            "TSPARMCD",
            "TSPARM",
            "TSVAL"
          ],
          "populatedColumns": [
            "STUDYID",
            "DOMAIN",
            "TSSEQ",
            "TSPARMCD",
            "TSPARM",
            "TSVAL"
          ],
          "subjectCount": 0,
          "identityFields": [
            "STUDYID",
            "DOMAIN"
          ],
          "timingFields": [],
          "relationshipFields": [],
          "referenceRangeFields": [],
          "unitFields": [],
          "columnProfile": {
            "STUDYID": {
              "populated": 30,
              "missing": 0,
              "distinctPopulated": 1,
              "sampleValues": [
                "Study ID"
              ]
            },
            "DOMAIN": {
              "populated": 30,
              "missing": 0,
              "distinctPopulated": 1,
              "sampleValues": [
                "TS"
              ]
            },
            "TSSEQ": {
              "populated": 30,
              "missing": 0,
              "distinctPopulated": 1
            },
            "TSGRPID": {
              "populated": 0,
              "missing": 30,
              "distinctPopulated": 0
            },
            "TSPARMCD": {
              "populated": 30,
              "missing": 0,
              "distinctPopulated": 30
            },
            "TSPARM": {
              "populated": 30,
              "missing": 0,
              "distinctPopulated": 30
            },
            "TSVAL": {
              "populated": 30,
              "missing": 0,
              "distinctPopulated": 28
            }
          },
          "sourceSystem": {
            "name": "pyreadstat",
            "version": "1.3.6"
          },
          "tableName": "TS"
        },
        {
          "domain": "TX",
          "path": "data/studies/FFU-Contribution-to-FDA/tx.xpt",
          "bytes": 5200,
          "sha256": "eaf8f1bf9e47c7f4a46cf655eeb9257b42f6f333f80aa124a94c37a977a90491",
          "rows": 35,
          "columns": [
            "STUDYID",
            "DOMAIN",
            "SETCD",
            "SET",
            "TXSEQ",
            "TXPARMCD",
            "TXPARM",
            "TXVAL"
          ],
          "populatedColumns": [
            "STUDYID",
            "DOMAIN",
            "SETCD",
            "SET",
            "TXSEQ",
            "TXPARMCD",
            "TXPARM",
            "TXVAL"
          ],
          "subjectCount": 0,
          "identityFields": [
            "STUDYID",
            "DOMAIN",
            "SETCD"
          ],
          "timingFields": [],
          "relationshipFields": [],
          "referenceRangeFields": [],
          "unitFields": [],
          "columnProfile": {
            "STUDYID": {
              "populated": 35,
              "missing": 0,
              "distinctPopulated": 1,
              "sampleValues": [
                "Study ID"
              ]
            },
            "DOMAIN": {
              "populated": 35,
              "missing": 0,
              "distinctPopulated": 1,
              "sampleValues": [
                "TX"
              ]
            },
            "SETCD": {
              "populated": 35,
              "missing": 0,
              "distinctPopulated": 5,
              "sampleValues": [
                "1",
                "2",
                "3",
                "4",
                "5"
              ]
            },
            "SET": {
              "populated": 35,
              "missing": 0,
              "distinctPopulated": 5
            },
            "TXSEQ": {
              "populated": 35,
              "missing": 0,
              "distinctPopulated": 35
            },
            "TXPARMCD": {
              "populated": 35,
              "missing": 0,
              "distinctPopulated": 7
            },
            "TXPARM": {
              "populated": 35,
              "missing": 0,
              "distinctPopulated": 7
            },
            "TXVAL": {
              "populated": 35,
              "missing": 0,
              "distinctPopulated": 17
            }
          },
          "sourceSystem": {
            "name": "pyreadstat",
            "version": "1.3.6"
          },
          "tableName": "TX"
        }
      ],
      "candidateEvidenceChains": [
        {
          "organ": "HEART",
          "finding": "Infiltration, mononuclear cell, Infiltration, mononuclear cell",
          "affectedSubjects": 7,
          "microscopyRows": 7,
          "severityValues": [
            "MINIMAL"
          ],
          "support": {
            "OM": {
              "present": true,
              "subjectRows": 140,
              "sameOrganRows": 14,
              "organField": "OMSPEC"
            },
            "BW": {
              "present": true,
              "subjectRows": 77
            },
            "FW": {
              "present": false,
              "subjectRows": 0
            },
            "LB": {
              "present": true,
              "subjectRows": 1416,
              "sameOrganRows": 0,
              "organField": "LBSPEC"
            },
            "CL": {
              "present": true,
              "subjectRows": 181,
              "sameOrganRows": 0,
              "organField": "CLLOC"
            },
            "MA": {
              "present": true,
              "subjectRows": 364,
              "sameOrganRows": 7,
              "organField": "MASPEC"
            },
            "EX": {
              "present": true,
              "subjectRows": 22
            },
            "PC": {
              "present": true,
              "subjectRows": 300,
              "sameOrganRows": 0,
              "organField": "PCSPEC"
            },
            "PP": {
              "present": true,
              "subjectRows": 240,
              "sameOrganRows": 0,
              "organField": "PPSPEC"
            },
            "SE": {
              "present": true,
              "subjectRows": 14
            },
            "DS": {
              "present": true,
              "subjectRows": 7
            },
            "RELREC": {
              "present": false,
              "subjectRows": 0
            }
          },
          "observedSupportDomains": [
            "OM",
            "BW",
            "LB",
            "CL",
            "MA",
            "EX",
            "PC",
            "PP",
            "SE",
            "DS"
          ],
          "sameOrganSupportDomains": [
            "OM",
            "MA"
          ],
          "selectionScore": 137,
          "interpretationBoundary": "Candidate relationship coverage only; no treatment relationship, adversity, or causality is asserted."
        },
        {
          "organ": "THYMUS",
          "finding": "Decreased number, lymphocytes, cortex, Decreased number, lymphocytes, cortex",
          "affectedSubjects": 7,
          "microscopyRows": 7,
          "severityValues": [
            "MILD",
            "MINIMAL",
            "MODERATE"
          ],
          "support": {
            "OM": {
              "present": true,
              "subjectRows": 140,
              "sameOrganRows": 14,
              "organField": "OMSPEC"
            },
            "BW": {
              "present": true,
              "subjectRows": 77
            },
            "FW": {
              "present": false,
              "subjectRows": 0
            },
            "LB": {
              "present": true,
              "subjectRows": 1432,
              "sameOrganRows": 0,
              "organField": "LBSPEC"
            },
            "CL": {
              "present": true,
              "subjectRows": 183,
              "sameOrganRows": 0,
              "organField": "CLLOC"
            },
            "MA": {
              "present": true,
              "subjectRows": 364,
              "sameOrganRows": 7,
              "organField": "MASPEC"
            },
            "EX": {
              "present": true,
              "subjectRows": 24
            },
            "PC": {
              "present": true,
              "subjectRows": 420,
              "sameOrganRows": 0,
              "organField": "PCSPEC"
            },
            "PP": {
              "present": true,
              "subjectRows": 336,
              "sameOrganRows": 0,
              "organField": "PPSPEC"
            },
            "SE": {
              "present": true,
              "subjectRows": 14
            },
            "DS": {
              "present": true,
              "subjectRows": 7
            },
            "RELREC": {
              "present": false,
              "subjectRows": 0
            }
          },
          "observedSupportDomains": [
            "OM",
            "BW",
            "LB",
            "CL",
            "MA",
            "EX",
            "PC",
            "PP",
            "SE",
            "DS"
          ],
          "sameOrganSupportDomains": [
            "OM",
            "MA"
          ],
          "selectionScore": 137,
          "interpretationBoundary": "Candidate relationship coverage only; no treatment relationship, adversity, or causality is asserted."
        },
        {
          "organ": "KIDNEY",
          "finding": "Infiltration, mononuclear cell, interstitial, Infiltration, mononuclear cell, interstitial",
          "affectedSubjects": 6,
          "microscopyRows": 6,
          "severityValues": [
            "MILD",
            "MINIMAL"
          ],
          "support": {
            "OM": {
              "present": true,
              "subjectRows": 120,
              "sameOrganRows": 12,
              "organField": "OMSPEC"
            },
            "BW": {
              "present": true,
              "subjectRows": 66
            },
            "FW": {
              "present": false,
              "subjectRows": 0
            },
            "LB": {
              "present": true,
              "subjectRows": 1232,
              "sameOrganRows": 0,
              "organField": "LBSPEC"
            },
            "CL": {
              "present": true,
              "subjectRows": 144,
              "sameOrganRows": 0,
              "organField": "CLLOC"
            },
            "MA": {
              "present": true,
              "subjectRows": 312,
              "sameOrganRows": 6,
              "organField": "MASPEC"
            },
            "EX": {
              "present": true,
              "subjectRows": 18
            },
            "PC": {
              "present": true,
              "subjectRows": 300,
              "sameOrganRows": 0,
              "organField": "PCSPEC"
            },
            "PP": {
              "present": true,
              "subjectRows": 240,
              "sameOrganRows": 0,
              "organField": "PPSPEC"
            },
            "SE": {
              "present": true,
              "subjectRows": 12
            },
            "DS": {
              "present": true,
              "subjectRows": 6
            },
            "RELREC": {
              "present": false,
              "subjectRows": 0
            }
          },
          "observedSupportDomains": [
            "OM",
            "BW",
            "LB",
            "CL",
            "MA",
            "EX",
            "PC",
            "PP",
            "SE",
            "DS"
          ],
          "sameOrganSupportDomains": [
            "OM",
            "MA"
          ],
          "selectionScore": 136,
          "interpretationBoundary": "Candidate relationship coverage only; no treatment relationship, adversity, or causality is asserted."
        },
        {
          "organ": "LIVER",
          "finding": "Aggregates, mononuclear cell, Aggregates, mononuclear cell",
          "affectedSubjects": 2,
          "microscopyRows": 2,
          "severityValues": [
            "MINIMAL"
          ],
          "support": {
            "OM": {
              "present": true,
              "subjectRows": 40,
              "sameOrganRows": 4,
              "organField": "OMSPEC"
            },
            "BW": {
              "present": true,
              "subjectRows": 22
            },
            "FW": {
              "present": false,
              "subjectRows": 0
            },
            "LB": {
              "present": true,
              "subjectRows": 400,
              "sameOrganRows": 0,
              "organField": "LBSPEC"
            },
            "CL": {
              "present": true,
              "subjectRows": 50,
              "sameOrganRows": 0,
              "organField": "CLLOC"
            },
            "MA": {
              "present": true,
              "subjectRows": 104,
              "sameOrganRows": 2,
              "organField": "MASPEC"
            },
            "EX": {
              "present": true,
              "subjectRows": 8
            },
            "PC": {
              "present": true,
              "subjectRows": 120,
              "sameOrganRows": 0,
              "organField": "PCSPEC"
            },
            "PP": {
              "present": true,
              "subjectRows": 96,
              "sameOrganRows": 0,
              "organField": "PPSPEC"
            },
            "SE": {
              "present": true,
              "subjectRows": 4
            },
            "DS": {
              "present": true,
              "subjectRows": 2
            },
            "RELREC": {
              "present": false,
              "subjectRows": 0
            }
          },
          "observedSupportDomains": [
            "OM",
            "BW",
            "LB",
            "CL",
            "MA",
            "EX",
            "PC",
            "PP",
            "SE",
            "DS"
          ],
          "sameOrganSupportDomains": [
            "OM",
            "MA"
          ],
          "selectionScore": 132,
          "interpretationBoundary": "Candidate relationship coverage only; no treatment relationship, adversity, or causality is asserted."
        },
        {
          "organ": "THYMUS",
          "finding": "Cyst(s), Cyst(s)",
          "affectedSubjects": 2,
          "microscopyRows": 2,
          "severityValues": [
            "MILD",
            "MINIMAL"
          ],
          "support": {
            "OM": {
              "present": true,
              "subjectRows": 40,
              "sameOrganRows": 4,
              "organField": "OMSPEC"
            },
            "BW": {
              "present": true,
              "subjectRows": 22
            },
            "FW": {
              "present": false,
              "subjectRows": 0
            },
            "LB": {
              "present": true,
              "subjectRows": 416,
              "sameOrganRows": 0,
              "organField": "LBSPEC"
            },
            "CL": {
              "present": true,
              "subjectRows": 57,
              "sameOrganRows": 0,
              "organField": "CLLOC"
            },
            "MA": {
              "present": true,
              "subjectRows": 104,
              "sameOrganRows": 2,
              "organField": "MASPEC"
            },
            "EX": {
              "present": true,
              "subjectRows": 6
            },
            "PC": {
              "present": true,
              "subjectRows": 120,
              "sameOrganRows": 0,
              "organField": "PCSPEC"
            },
            "PP": {
              "present": true,
              "subjectRows": 96,
              "sameOrganRows": 0,
              "organField": "PPSPEC"
            },
            "SE": {
              "present": true,
              "subjectRows": 4
            },
            "DS": {
              "present": true,
              "subjectRows": 2
            },
            "RELREC": {
              "present": false,
              "subjectRows": 0
            }
          },
          "observedSupportDomains": [
            "OM",
            "BW",
            "LB",
            "CL",
            "MA",
            "EX",
            "PC",
            "PP",
            "SE",
            "DS"
          ],
          "sameOrganSupportDomains": [
            "OM",
            "MA"
          ],
          "selectionScore": 132,
          "interpretationBoundary": "Candidate relationship coverage only; no treatment relationship, adversity, or causality is asserted."
        },
        {
          "organ": "HEART",
          "finding": "Degeneration/Necrosis, Degeneration/Necrosis",
          "affectedSubjects": 1,
          "microscopyRows": 1,
          "severityValues": [
            "MINIMAL"
          ],
          "support": {
            "OM": {
              "present": true,
              "subjectRows": 20,
              "sameOrganRows": 2,
              "organField": "OMSPEC"
            },
            "BW": {
              "present": true,
              "subjectRows": 11
            },
            "FW": {
              "present": false,
              "subjectRows": 0
            },
            "LB": {
              "present": true,
              "subjectRows": 200,
              "sameOrganRows": 0,
              "organField": "LBSPEC"
            },
            "CL": {
              "present": true,
              "subjectRows": 31,
              "sameOrganRows": 0,
              "organField": "CLLOC"
            },
            "MA": {
              "present": true,
              "subjectRows": 52,
              "sameOrganRows": 1,
              "organField": "MASPEC"
            },
            "EX": {
              "present": true,
              "subjectRows": 4
            },
            "PC": {
              "present": true,
              "subjectRows": 60,
              "sameOrganRows": 0,
              "organField": "PCSPEC"
            },
            "PP": {
              "present": true,
              "subjectRows": 48,
              "sameOrganRows": 0,
              "organField": "PPSPEC"
            },
            "SE": {
              "present": true,
              "subjectRows": 2
            },
            "DS": {
              "present": true,
              "subjectRows": 1
            },
            "RELREC": {
              "present": false,
              "subjectRows": 0
            }
          },
          "observedSupportDomains": [
            "OM",
            "BW",
            "LB",
            "CL",
            "MA",
            "EX",
            "PC",
            "PP",
            "SE",
            "DS"
          ],
          "sameOrganSupportDomains": [
            "OM",
            "MA"
          ],
          "selectionScore": 131,
          "interpretationBoundary": "Candidate relationship coverage only; no treatment relationship, adversity, or causality is asserted."
        },
        {
          "organ": "KIDNEY",
          "finding": "Basophilia, tubules, Basophilia, tubules",
          "affectedSubjects": 1,
          "microscopyRows": 1,
          "severityValues": [
            "MINIMAL"
          ],
          "support": {
            "OM": {
              "present": true,
              "subjectRows": 20,
              "sameOrganRows": 2,
              "organField": "OMSPEC"
            },
            "BW": {
              "present": true,
              "subjectRows": 11
            },
            "FW": {
              "present": false,
              "subjectRows": 0
            },
            "LB": {
              "present": true,
              "subjectRows": 200,
              "sameOrganRows": 0,
              "organField": "LBSPEC"
            },
            "CL": {
              "present": true,
              "subjectRows": 25,
              "sameOrganRows": 0,
              "organField": "CLLOC"
            },
            "MA": {
              "present": true,
              "subjectRows": 52,
              "sameOrganRows": 1,
              "organField": "MASPEC"
            },
            "EX": {
              "present": true,
              "subjectRows": 4
            },
            "PC": {
              "present": true,
              "subjectRows": 60,
              "sameOrganRows": 0,
              "organField": "PCSPEC"
            },
            "PP": {
              "present": true,
              "subjectRows": 48,
              "sameOrganRows": 0,
              "organField": "PPSPEC"
            },
            "SE": {
              "present": true,
              "subjectRows": 2
            },
            "DS": {
              "present": true,
              "subjectRows": 1
            },
            "RELREC": {
              "present": false,
              "subjectRows": 0
            }
          },
          "observedSupportDomains": [
            "OM",
            "BW",
            "LB",
            "CL",
            "MA",
            "EX",
            "PC",
            "PP",
            "SE",
            "DS"
          ],
          "sameOrganSupportDomains": [
            "OM",
            "MA"
          ],
          "selectionScore": 131,
          "interpretationBoundary": "Candidate relationship coverage only; no treatment relationship, adversity, or causality is asserted."
        },
        {
          "organ": "KIDNEY",
          "finding": "Degeneration, tubular epithelial cell, Degeneration, tubular epithelial cell",
          "affectedSubjects": 1,
          "microscopyRows": 1,
          "severityValues": [
            "MINIMAL"
          ],
          "support": {
            "OM": {
              "present": true,
              "subjectRows": 20,
              "sameOrganRows": 2,
              "organField": "OMSPEC"
            },
            "BW": {
              "present": true,
              "subjectRows": 11
            },
            "FW": {
              "present": false,
              "subjectRows": 0
            },
            "LB": {
              "present": true,
              "subjectRows": 200,
              "sameOrganRows": 0,
              "organField": "LBSPEC"
            },
            "CL": {
              "present": true,
              "subjectRows": 25,
              "sameOrganRows": 0,
              "organField": "CLLOC"
            },
            "MA": {
              "present": true,
              "subjectRows": 52,
              "sameOrganRows": 1,
              "organField": "MASPEC"
            },
            "EX": {
              "present": true,
              "subjectRows": 4
            },
            "PC": {
              "present": true,
              "subjectRows": 60,
              "sameOrganRows": 0,
              "organField": "PCSPEC"
            },
            "PP": {
              "present": true,
              "subjectRows": 48,
              "sameOrganRows": 0,
              "organField": "PPSPEC"
            },
            "SE": {
              "present": true,
              "subjectRows": 2
            },
            "DS": {
              "present": true,
              "subjectRows": 1
            },
            "RELREC": {
              "present": false,
              "subjectRows": 0
            }
          },
          "observedSupportDomains": [
            "OM",
            "BW",
            "LB",
            "CL",
            "MA",
            "EX",
            "PC",
            "PP",
            "SE",
            "DS"
          ],
          "sameOrganSupportDomains": [
            "OM",
            "MA"
          ],
          "selectionScore": 131,
          "interpretationBoundary": "Candidate relationship coverage only; no treatment relationship, adversity, or causality is asserted."
        },
        {
          "organ": "KIDNEY",
          "finding": "Mineralization, corticomedullary junction, Mineralization, corticomedullary junction",
          "affectedSubjects": 1,
          "microscopyRows": 1,
          "severityValues": [
            "MINIMAL"
          ],
          "support": {
            "OM": {
              "present": true,
              "subjectRows": 20,
              "sameOrganRows": 2,
              "organField": "OMSPEC"
            },
            "BW": {
              "present": true,
              "subjectRows": 11
            },
            "FW": {
              "present": false,
              "subjectRows": 0
            },
            "LB": {
              "present": true,
              "subjectRows": 200,
              "sameOrganRows": 0,
              "organField": "LBSPEC"
            },
            "CL": {
              "present": true,
              "subjectRows": 21,
              "sameOrganRows": 0,
              "organField": "CLLOC"
            },
            "MA": {
              "present": true,
              "subjectRows": 52,
              "sameOrganRows": 1,
              "organField": "MASPEC"
            },
            "EX": {
              "present": true,
              "subjectRows": 4
            },
            "PC": {
              "present": true,
              "subjectRows": 60,
              "sameOrganRows": 0,
              "organField": "PCSPEC"
            },
            "PP": {
              "present": true,
              "subjectRows": 48,
              "sameOrganRows": 0,
              "organField": "PPSPEC"
            },
            "SE": {
              "present": true,
              "subjectRows": 2
            },
            "DS": {
              "present": true,
              "subjectRows": 1
            },
            "RELREC": {
              "present": false,
              "subjectRows": 0
            }
          },
          "observedSupportDomains": [
            "OM",
            "BW",
            "LB",
            "CL",
            "MA",
            "EX",
            "PC",
            "PP",
            "SE",
            "DS"
          ],
          "sameOrganSupportDomains": [
            "OM",
            "MA"
          ],
          "selectionScore": 131,
          "interpretationBoundary": "Candidate relationship coverage only; no treatment relationship, adversity, or causality is asserted."
        },
        {
          "organ": "KIDNEY",
          "finding": "Pigmentation, Pigmentation",
          "affectedSubjects": 1,
          "microscopyRows": 1,
          "severityValues": [
            "MILD"
          ],
          "support": {
            "OM": {
              "present": true,
              "subjectRows": 20,
              "sameOrganRows": 2,
              "organField": "OMSPEC"
            },
            "BW": {
              "present": true,
              "subjectRows": 11
            },
            "FW": {
              "present": false,
              "subjectRows": 0
            },
            "LB": {
              "present": true,
              "subjectRows": 216,
              "sameOrganRows": 0,
              "organField": "LBSPEC"
            },
            "CL": {
              "present": true,
              "subjectRows": 22,
              "sameOrganRows": 0,
              "organField": "CLLOC"
            },
            "MA": {
              "present": true,
              "subjectRows": 52,
              "sameOrganRows": 1,
              "organField": "MASPEC"
            },
            "EX": {
              "present": true,
              "subjectRows": 2
            },
            "PC": {
              "present": true,
              "subjectRows": 60,
              "sameOrganRows": 0,
              "organField": "PCSPEC"
            },
            "PP": {
              "present": true,
              "subjectRows": 48,
              "sameOrganRows": 0,
              "organField": "PPSPEC"
            },
            "SE": {
              "present": true,
              "subjectRows": 2
            },
            "DS": {
              "present": true,
              "subjectRows": 1
            },
            "RELREC": {
              "present": false,
              "subjectRows": 0
            }
          },
          "observedSupportDomains": [
            "OM",
            "BW",
            "LB",
            "CL",
            "MA",
            "EX",
            "PC",
            "PP",
            "SE",
            "DS"
          ],
          "sameOrganSupportDomains": [
            "OM",
            "MA"
          ],
          "selectionScore": 131,
          "interpretationBoundary": "Candidate relationship coverage only; no treatment relationship, adversity, or causality is asserted."
        },
        {
          "organ": "LIVER",
          "finding": "Infiltration, mixed cell, Infiltration, mixed cell",
          "affectedSubjects": 1,
          "microscopyRows": 1,
          "severityValues": [
            "MINIMAL"
          ],
          "support": {
            "OM": {
              "present": true,
              "subjectRows": 20,
              "sameOrganRows": 2,
              "organField": "OMSPEC"
            },
            "BW": {
              "present": true,
              "subjectRows": 11
            },
            "FW": {
              "present": false,
              "subjectRows": 0
            },
            "LB": {
              "present": true,
              "subjectRows": 200,
              "sameOrganRows": 0,
              "organField": "LBSPEC"
            },
            "CL": {
              "present": true,
              "subjectRows": 25,
              "sameOrganRows": 0,
              "organField": "CLLOC"
            },
            "MA": {
              "present": true,
              "subjectRows": 52,
              "sameOrganRows": 1,
              "organField": "MASPEC"
            },
            "EX": {
              "present": true,
              "subjectRows": 4
            },
            "PC": {
              "present": true,
              "subjectRows": 60,
              "sameOrganRows": 0,
              "organField": "PCSPEC"
            },
            "PP": {
              "present": true,
              "subjectRows": 48,
              "sameOrganRows": 0,
              "organField": "PPSPEC"
            },
            "SE": {
              "present": true,
              "subjectRows": 2
            },
            "DS": {
              "present": true,
              "subjectRows": 1
            },
            "RELREC": {
              "present": false,
              "subjectRows": 0
            }
          },
          "observedSupportDomains": [
            "OM",
            "BW",
            "LB",
            "CL",
            "MA",
            "EX",
            "PC",
            "PP",
            "SE",
            "DS"
          ],
          "sameOrganSupportDomains": [
            "OM",
            "MA"
          ],
          "selectionScore": 131,
          "interpretationBoundary": "Candidate relationship coverage only; no treatment relationship, adversity, or causality is asserted."
        },
        {
          "organ": "LIVER",
          "finding": "Necrosis, single cell, Necrosis, single cell",
          "affectedSubjects": 1,
          "microscopyRows": 1,
          "severityValues": [
            "MINIMAL"
          ],
          "support": {
            "OM": {
              "present": true,
              "subjectRows": 20,
              "sameOrganRows": 2,
              "organField": "OMSPEC"
            },
            "BW": {
              "present": true,
              "subjectRows": 11
            },
            "FW": {
              "present": false,
              "subjectRows": 0
            },
            "LB": {
              "present": true,
              "subjectRows": 200,
              "sameOrganRows": 0,
              "organField": "LBSPEC"
            },
            "CL": {
              "present": true,
              "subjectRows": 21,
              "sameOrganRows": 0,
              "organField": "CLLOC"
            },
            "MA": {
              "present": true,
              "subjectRows": 52,
              "sameOrganRows": 1,
              "organField": "MASPEC"
            },
            "EX": {
              "present": true,
              "subjectRows": 4
            },
            "PC": {
              "present": true,
              "subjectRows": 60,
              "sameOrganRows": 0,
              "organField": "PCSPEC"
            },
            "PP": {
              "present": true,
              "subjectRows": 48,
              "sameOrganRows": 0,
              "organField": "PPSPEC"
            },
            "SE": {
              "present": true,
              "subjectRows": 2
            },
            "DS": {
              "present": true,
              "subjectRows": 1
            },
            "RELREC": {
              "present": false,
              "subjectRows": 0
            }
          },
          "observedSupportDomains": [
            "OM",
            "BW",
            "LB",
            "CL",
            "MA",
            "EX",
            "PC",
            "PP",
            "SE",
            "DS"
          ],
          "sameOrganSupportDomains": [
            "OM",
            "MA"
          ],
          "selectionScore": 131,
          "interpretationBoundary": "Candidate relationship coverage only; no treatment relationship, adversity, or causality is asserted."
        },
        {
          "organ": "LUNG",
          "finding": "Infiltration, mononuclear cell, Infiltration, mononuclear cell",
          "affectedSubjects": 8,
          "microscopyRows": 8,
          "severityValues": [
            "MINIMAL"
          ],
          "support": {
            "OM": {
              "present": true,
              "subjectRows": 160,
              "sameOrganRows": 0,
              "organField": "OMSPEC"
            },
            "BW": {
              "present": true,
              "subjectRows": 88
            },
            "FW": {
              "present": false,
              "subjectRows": 0
            },
            "LB": {
              "present": true,
              "subjectRows": 1616,
              "sameOrganRows": 0,
              "organField": "LBSPEC"
            },
            "CL": {
              "present": true,
              "subjectRows": 211,
              "sameOrganRows": 0,
              "organField": "CLLOC"
            },
            "MA": {
              "present": true,
              "subjectRows": 416,
              "sameOrganRows": 8,
              "organField": "MASPEC"
            },
            "EX": {
              "present": true,
              "subjectRows": 28
            },
            "PC": {
              "present": true,
              "subjectRows": 420,
              "sameOrganRows": 0,
              "organField": "PCSPEC"
            },
            "PP": {
              "present": true,
              "subjectRows": 336,
              "sameOrganRows": 0,
              "organField": "PPSPEC"
            },
            "SE": {
              "present": true,
              "subjectRows": 16
            },
            "DS": {
              "present": true,
              "subjectRows": 8
            },
            "RELREC": {
              "present": false,
              "subjectRows": 0
            }
          },
          "observedSupportDomains": [
            "OM",
            "BW",
            "LB",
            "CL",
            "MA",
            "EX",
            "PC",
            "PP",
            "SE",
            "DS"
          ],
          "sameOrganSupportDomains": [
            "MA"
          ],
          "selectionScore": 123,
          "interpretationBoundary": "Candidate relationship coverage only; no treatment relationship, adversity, or causality is asserted."
        },
        {
          "organ": "SITE, INJECTION",
          "finding": "Increased number, fibroblasts, Increased number, fibroblasts",
          "affectedSubjects": 5,
          "microscopyRows": 5,
          "severityValues": [
            "MILD",
            "MINIMAL"
          ],
          "support": {
            "OM": {
              "present": true,
              "subjectRows": 100,
              "sameOrganRows": 0,
              "organField": "OMSPEC"
            },
            "BW": {
              "present": true,
              "subjectRows": 55
            },
            "FW": {
              "present": false,
              "subjectRows": 0
            },
            "LB": {
              "present": true,
              "subjectRows": 1032,
              "sameOrganRows": 0,
              "organField": "LBSPEC"
            },
            "CL": {
              "present": true,
              "subjectRows": 132,
              "sameOrganRows": 0,
              "organField": "CLLOC"
            },
            "MA": {
              "present": true,
              "subjectRows": 260,
              "sameOrganRows": 5,
              "organField": "MASPEC"
            },
            "EX": {
              "present": true,
              "subjectRows": 14
            },
            "PC": {
              "present": true,
              "subjectRows": 240,
              "sameOrganRows": 0,
              "organField": "PCSPEC"
            },
            "PP": {
              "present": true,
              "subjectRows": 192,
              "sameOrganRows": 0,
              "organField": "PPSPEC"
            },
            "SE": {
              "present": true,
              "subjectRows": 10
            },
            "DS": {
              "present": true,
              "subjectRows": 5
            },
            "RELREC": {
              "present": false,
              "subjectRows": 0
            }
          },
          "observedSupportDomains": [
            "OM",
            "BW",
            "LB",
            "CL",
            "MA",
            "EX",
            "PC",
            "PP",
            "SE",
            "DS"
          ],
          "sameOrganSupportDomains": [
            "MA"
          ],
          "selectionScore": 120,
          "interpretationBoundary": "Candidate relationship coverage only; no treatment relationship, adversity, or causality is asserted."
        },
        {
          "organ": "BONE MARROW",
          "finding": "Hypocellularity, Hypocellularity",
          "affectedSubjects": 3,
          "microscopyRows": 3,
          "severityValues": [
            "MILD",
            "MINIMAL",
            "MODERATE"
          ],
          "support": {
            "OM": {
              "present": true,
              "subjectRows": 60,
              "sameOrganRows": 0,
              "organField": "OMSPEC"
            },
            "BW": {
              "present": true,
              "subjectRows": 33
            },
            "FW": {
              "present": false,
              "subjectRows": 0
            },
            "LB": {
              "present": true,
              "subjectRows": 600,
              "sameOrganRows": 0,
              "organField": "LBSPEC"
            },
            "CL": {
              "present": true,
              "subjectRows": 81,
              "sameOrganRows": 0,
              "organField": "CLLOC"
            },
            "MA": {
              "present": true,
              "subjectRows": 156,
              "sameOrganRows": 3,
              "organField": "MASPEC"
            },
            "EX": {
              "present": true,
              "subjectRows": 12
            },
            "PC": {
              "present": true,
              "subjectRows": 180,
              "sameOrganRows": 0,
              "organField": "PCSPEC"
            },
            "PP": {
              "present": true,
              "subjectRows": 144,
              "sameOrganRows": 0,
              "organField": "PPSPEC"
            },
            "SE": {
              "present": true,
              "subjectRows": 6
            },
            "DS": {
              "present": true,
              "subjectRows": 3
            },
            "RELREC": {
              "present": false,
              "subjectRows": 0
            }
          },
          "observedSupportDomains": [
            "OM",
            "BW",
            "LB",
            "CL",
            "MA",
            "EX",
            "PC",
            "PP",
            "SE",
            "DS"
          ],
          "sameOrganSupportDomains": [
            "MA"
          ],
          "selectionScore": 118,
          "interpretationBoundary": "Candidate relationship coverage only; no treatment relationship, adversity, or causality is asserted."
        },
        {
          "organ": "SITE, INJECTION",
          "finding": "Infiltration, mononuclear cell, Infiltration, mononuclear cell",
          "affectedSubjects": 3,
          "microscopyRows": 3,
          "severityValues": [
            "MINIMAL"
          ],
          "support": {
            "OM": {
              "present": true,
              "subjectRows": 60,
              "sameOrganRows": 0,
              "organField": "OMSPEC"
            },
            "BW": {
              "present": true,
              "subjectRows": 33
            },
            "FW": {
              "present": false,
              "subjectRows": 0
            },
            "LB": {
              "present": true,
              "subjectRows": 600,
              "sameOrganRows": 0,
              "organField": "LBSPEC"
            },
            "CL": {
              "present": true,
              "subjectRows": 77,
              "sameOrganRows": 0,
              "organField": "CLLOC"
            },
            "MA": {
              "present": true,
              "subjectRows": 156,
              "sameOrganRows": 3,
              "organField": "MASPEC"
            },
            "EX": {
              "present": true,
              "subjectRows": 12
            },
            "PC": {
              "present": true,
              "subjectRows": 180,
              "sameOrganRows": 0,
              "organField": "PCSPEC"
            },
            "PP": {
              "present": true,
              "subjectRows": 144,
              "sameOrganRows": 0,
              "organField": "PPSPEC"
            },
            "SE": {
              "present": true,
              "subjectRows": 6
            },
            "DS": {
              "present": true,
              "subjectRows": 3
            },
            "RELREC": {
              "present": false,
              "subjectRows": 0
            }
          },
          "observedSupportDomains": [
            "OM",
            "BW",
            "LB",
            "CL",
            "MA",
            "EX",
            "PC",
            "PP",
            "SE",
            "DS"
          ],
          "sameOrganSupportDomains": [
            "MA"
          ],
          "selectionScore": 118,
          "interpretationBoundary": "Candidate relationship coverage only; no treatment relationship, adversity, or causality is asserted."
        },
        {
          "organ": "GALLBLADDER",
          "finding": "Infiltration, mononuclear cell, Infiltration, mononuclear cell",
          "affectedSubjects": 1,
          "microscopyRows": 1,
          "severityValues": [
            "MINIMAL"
          ],
          "support": {
            "OM": {
              "present": true,
              "subjectRows": 20,
              "sameOrganRows": 0,
              "organField": "OMSPEC"
            },
            "BW": {
              "present": true,
              "subjectRows": 11
            },
            "FW": {
              "present": false,
              "subjectRows": 0
            },
            "LB": {
              "present": true,
              "subjectRows": 200,
              "sameOrganRows": 0,
              "organField": "LBSPEC"
            },
            "CL": {
              "present": true,
              "subjectRows": 23,
              "sameOrganRows": 0,
              "organField": "CLLOC"
            },
            "MA": {
              "present": true,
              "subjectRows": 52,
              "sameOrganRows": 1,
              "organField": "MASPEC"
            },
            "EX": {
              "present": true,
              "subjectRows": 4
            },
            "PC": {
              "present": true,
              "subjectRows": 60,
              "sameOrganRows": 0,
              "organField": "PCSPEC"
            },
            "PP": {
              "present": true,
              "subjectRows": 48,
              "sameOrganRows": 0,
              "organField": "PPSPEC"
            },
            "SE": {
              "present": true,
              "subjectRows": 2
            },
            "DS": {
              "present": true,
              "subjectRows": 1
            },
            "RELREC": {
              "present": false,
              "subjectRows": 0
            }
          },
          "observedSupportDomains": [
            "OM",
            "BW",
            "LB",
            "CL",
            "MA",
            "EX",
            "PC",
            "PP",
            "SE",
            "DS"
          ],
          "sameOrganSupportDomains": [
            "MA"
          ],
          "selectionScore": 116,
          "interpretationBoundary": "Candidate relationship coverage only; no treatment relationship, adversity, or causality is asserted."
        },
        {
          "organ": "GLAND, MAMMARY",
          "finding": "Atrophy, Atrophy",
          "affectedSubjects": 1,
          "microscopyRows": 1,
          "severityValues": [
            "MINIMAL"
          ],
          "support": {
            "OM": {
              "present": true,
              "subjectRows": 20,
              "sameOrganRows": 0,
              "organField": "OMSPEC"
            },
            "BW": {
              "present": true,
              "subjectRows": 11
            },
            "FW": {
              "present": false,
              "subjectRows": 0
            },
            "LB": {
              "present": true,
              "subjectRows": 200,
              "sameOrganRows": 0,
              "organField": "LBSPEC"
            },
            "CL": {
              "present": true,
              "subjectRows": 31,
              "sameOrganRows": 0,
              "organField": "CLLOC"
            },
            "MA": {
              "present": true,
              "subjectRows": 52,
              "sameOrganRows": 1,
              "organField": "MASPEC"
            },
            "EX": {
              "present": true,
              "subjectRows": 4
            },
            "PC": {
              "present": true,
              "subjectRows": 60,
              "sameOrganRows": 0,
              "organField": "PCSPEC"
            },
            "PP": {
              "present": true,
              "subjectRows": 48,
              "sameOrganRows": 0,
              "organField": "PPSPEC"
            },
            "SE": {
              "present": true,
              "subjectRows": 2
            },
            "DS": {
              "present": true,
              "subjectRows": 1
            },
            "RELREC": {
              "present": false,
              "subjectRows": 0
            }
          },
          "observedSupportDomains": [
            "OM",
            "BW",
            "LB",
            "CL",
            "MA",
            "EX",
            "PC",
            "PP",
            "SE",
            "DS"
          ],
          "sameOrganSupportDomains": [
            "MA"
          ],
          "selectionScore": 116,
          "interpretationBoundary": "Candidate relationship coverage only; no treatment relationship, adversity, or causality is asserted."
        },
        {
          "organ": "LUNG",
          "finding": "Aggregates, macrophages, alveolar, Aggregates, macrophages, alveolar",
          "affectedSubjects": 1,
          "microscopyRows": 1,
          "severityValues": [
            "MINIMAL"
          ],
          "support": {
            "OM": {
              "present": true,
              "subjectRows": 20,
              "sameOrganRows": 0,
              "organField": "OMSPEC"
            },
            "BW": {
              "present": true,
              "subjectRows": 11
            },
            "FW": {
              "present": false,
              "subjectRows": 0
            },
            "LB": {
              "present": true,
              "subjectRows": 200,
              "sameOrganRows": 0,
              "organField": "LBSPEC"
            },
            "CL": {
              "present": true,
              "subjectRows": 25,
              "sameOrganRows": 0,
              "organField": "CLLOC"
            },
            "MA": {
              "present": true,
              "subjectRows": 52,
              "sameOrganRows": 1,
              "organField": "MASPEC"
            },
            "EX": {
              "present": true,
              "subjectRows": 4
            },
            "PC": {
              "present": true,
              "subjectRows": 60,
              "sameOrganRows": 0,
              "organField": "PCSPEC"
            },
            "PP": {
              "present": true,
              "subjectRows": 48,
              "sameOrganRows": 0,
              "organField": "PPSPEC"
            },
            "SE": {
              "present": true,
              "subjectRows": 2
            },
            "DS": {
              "present": true,
              "subjectRows": 1
            },
            "RELREC": {
              "present": false,
              "subjectRows": 0
            }
          },
          "observedSupportDomains": [
            "OM",
            "BW",
            "LB",
            "CL",
            "MA",
            "EX",
            "PC",
            "PP",
            "SE",
            "DS"
          ],
          "sameOrganSupportDomains": [
            "MA"
          ],
          "selectionScore": 116,
          "interpretationBoundary": "Candidate relationship coverage only; no treatment relationship, adversity, or causality is asserted."
        },
        {
          "organ": "LUNG",
          "finding": "Infiltration, mixed cell, Infiltration, mixed cell",
          "affectedSubjects": 1,
          "microscopyRows": 1,
          "severityValues": [
            "MINIMAL"
          ],
          "support": {
            "OM": {
              "present": true,
              "subjectRows": 20,
              "sameOrganRows": 0,
              "organField": "OMSPEC"
            },
            "BW": {
              "present": true,
              "subjectRows": 11
            },
            "FW": {
              "present": false,
              "subjectRows": 0
            },
            "LB": {
              "present": true,
              "subjectRows": 216,
              "sameOrganRows": 0,
              "organField": "LBSPEC"
            },
            "CL": {
              "present": true,
              "subjectRows": 28,
              "sameOrganRows": 0,
              "organField": "CLLOC"
            },
            "MA": {
              "present": true,
              "subjectRows": 52,
              "sameOrganRows": 1,
              "organField": "MASPEC"
            },
            "EX": {
              "present": true,
              "subjectRows": 2
            },
            "PC": {
              "present": true,
              "subjectRows": 60,
              "sameOrganRows": 0,
              "organField": "PCSPEC"
            },
            "PP": {
              "present": true,
              "subjectRows": 48,
              "sameOrganRows": 0,
              "organField": "PPSPEC"
            },
            "SE": {
              "present": true,
              "subjectRows": 2
            },
            "DS": {
              "present": true,
              "subjectRows": 1
            },
            "RELREC": {
              "present": false,
              "subjectRows": 0
            }
          },
          "observedSupportDomains": [
            "OM",
            "BW",
            "LB",
            "CL",
            "MA",
            "EX",
            "PC",
            "PP",
            "SE",
            "DS"
          ],
          "sameOrganSupportDomains": [
            "MA"
          ],
          "selectionScore": 116,
          "interpretationBoundary": "Candidate relationship coverage only; no treatment relationship, adversity, or causality is asserted."
        }
      ]
    },
    {
      "id": "nimble",
      "label": "Nimble",
      "sourcePath": "data/studies/Nimble",
      "summary": {
        "domainCount": 18,
        "recordCount": 3046,
        "subjectCountAcrossDomains": 100,
        "sampledStudyAttributes": {
          "STUDYID": [
            "Nimort-01"
          ],
          "SPECIES": [
            "RAT"
          ],
          "STRAIN": [
            "FISCHER 344"
          ],
          "SEX": [
            "F",
            "M"
          ],
          "SETCD": [
            "1",
            "2",
            "3"
          ],
          "ARMCD": [
            "PLAC",
            "TRT"
          ],
          "ARM": [
            "Placebo",
            "Treatment"
          ]
        },
        "recoveryEvidence": [],
        "phaseEvidence": [
          {
            "domain": "TA",
            "field": "ETCD",
            "values": [
              "FU",
              "PLAC",
              "RI",
              "SCRN",
              "TRT"
            ]
          },
          {
            "domain": "TA",
            "field": "ELEMENT",
            "values": [
              "Follow-up",
              "Placebo",
              "Run-In",
              "Screening",
              "Treatment"
            ]
          },
          {
            "domain": "TA",
            "field": "EPOCH",
            "values": [
              "FOLLOW-UP",
              "RUN-IN",
              "SCREENING",
              "TREATMENT"
            ]
          },
          {
            "domain": "TE",
            "field": "ETCD",
            "values": [
              "FU",
              "PLAC",
              "RI",
              "SCRN",
              "TRT"
            ]
          },
          {
            "domain": "TE",
            "field": "ELEMENT",
            "values": [
              "Follow-up",
              "Placebo",
              "Run-In",
              "Screening",
              "Treatment"
            ]
          }
        ],
        "referenceRangeEvidence": [
          {
            "domain": "LB",
            "fields": [
              "LBORNRLO",
              "LBORNRHI",
              "LBSTNRLO",
              "LBSTNRHI",
              "LBNRIND"
            ]
          }
        ],
        "relrecRows": 0
      },
      "domains": [
        {
          "domain": "BG",
          "path": "data/studies/Nimble/BG.xpt",
          "bytes": 17600,
          "sha256": "2afe3c8ed33d6f3e9edb48aaaf881df47e6f4cc25961c0d662b2e0f089162244",
          "rows": 160,
          "columns": [
            "STUDYID",
            "DOMAIN",
            "USUBJID",
            "BGSEQ",
            "BGTESTCD",
            "BGTEST",
            "BGORRES",
            "BGORRESU",
            "BGSTRESC",
            "BGSTRESN",
            "BGSTRESU",
            "BGDTC",
            "BGENDTC"
          ],
          "populatedColumns": [
            "STUDYID",
            "DOMAIN",
            "USUBJID",
            "BGSEQ",
            "BGTESTCD",
            "BGTEST",
            "BGORRES",
            "BGORRESU",
            "BGSTRESC",
            "BGSTRESN",
            "BGSTRESU",
            "BGDTC",
            "BGENDTC"
          ],
          "subjectCount": 67,
          "identityFields": [
            "STUDYID",
            "DOMAIN",
            "USUBJID"
          ],
          "timingFields": [
            "BGDTC",
            "BGENDTC"
          ],
          "relationshipFields": [],
          "referenceRangeFields": [],
          "unitFields": [
            "BGORRESU",
            "BGSTRESU"
          ],
          "columnProfile": {
            "STUDYID": {
              "populated": 160,
              "missing": 0,
              "distinctPopulated": 1,
              "sampleValues": [
                "Nimort-01"
              ]
            },
            "DOMAIN": {
              "populated": 160,
              "missing": 0,
              "distinctPopulated": 1,
              "sampleValues": [
                "BG"
              ]
            },
            "USUBJID": {
              "populated": 160,
              "missing": 0,
              "distinctPopulated": 67,
              "sampleValues": [
                "Nimort-01-001",
                "Nimort-01-002",
                "Nimort-01-004",
                "Nimort-01-005",
                "Nimort-01-007",
                "Nimort-01-008",
                "Nimort-01-010",
                "Nimort-01-011",
                "Nimort-01-013",
                "Nimort-01-014",
                "Nimort-01-016",
                "Nimort-01-017"
              ]
            },
            "BGSEQ": {
              "populated": 160,
              "missing": 0,
              "distinctPopulated": 3
            },
            "BGTESTCD": {
              "populated": 160,
              "missing": 0,
              "distinctPopulated": 1
            },
            "BGTEST": {
              "populated": 160,
              "missing": 0,
              "distinctPopulated": 1
            },
            "BGORRES": {
              "populated": 160,
              "missing": 0,
              "distinctPopulated": 110
            },
            "BGORRESU": {
              "populated": 160,
              "missing": 0,
              "distinctPopulated": 1,
              "sampleValues": [
                "g"
              ]
            },
            "BGSTRESC": {
              "populated": 160,
              "missing": 0,
              "distinctPopulated": 110
            },
            "BGSTRESN": {
              "populated": 160,
              "missing": 0,
              "distinctPopulated": 110
            },
            "BGSTRESU": {
              "populated": 160,
              "missing": 0,
              "distinctPopulated": 1,
              "sampleValues": [
                "g"
              ]
            },
            "BGDTC": {
              "populated": 160,
              "missing": 0,
              "distinctPopulated": 45
            },
            "BGENDTC": {
              "populated": 160,
              "missing": 0,
              "distinctPopulated": 44
            }
          },
          "sourceSystem": {
            "name": "pyreadstat",
            "version": "1.3.6"
          },
          "tableName": "BG"
        },
        {
          "domain": "BW",
          "path": "data/studies/Nimble/BW.xpt",
          "bytes": 28560,
          "sha256": "8c88da3f0212d27f43d1ee37f75f86e9ee2544e7276a13418a4a8bd04faefa9a",
          "rows": 228,
          "columns": [
            "STUDYID",
            "DOMAIN",
            "USUBJID",
            "BWSEQ",
            "BWTESTCD",
            "BWTEST",
            "BWORRES",
            "BWORRESU",
            "BWSTRESC",
            "BWSTRESN",
            "BWSTRESU",
            "BWSTAT",
            "BWREASND",
            "BWBLFL",
            "VISITDY",
            "BWDTC"
          ],
          "populatedColumns": [
            "STUDYID",
            "DOMAIN",
            "USUBJID",
            "BWSEQ",
            "BWTESTCD",
            "BWTEST",
            "BWORRES",
            "BWORRESU",
            "BWSTRESC",
            "BWSTRESN",
            "BWSTRESU",
            "BWSTAT",
            "BWREASND",
            "BWBLFL",
            "VISITDY",
            "BWDTC"
          ],
          "subjectCount": 67,
          "identityFields": [
            "STUDYID",
            "DOMAIN",
            "USUBJID"
          ],
          "timingFields": [
            "VISITDY",
            "BWDTC"
          ],
          "relationshipFields": [],
          "referenceRangeFields": [],
          "unitFields": [
            "BWORRESU",
            "BWSTRESU"
          ],
          "columnProfile": {
            "STUDYID": {
              "populated": 228,
              "missing": 0,
              "distinctPopulated": 1,
              "sampleValues": [
                "Nimort-01"
              ]
            },
            "DOMAIN": {
              "populated": 228,
              "missing": 0,
              "distinctPopulated": 1,
              "sampleValues": [
                "BW"
              ]
            },
            "USUBJID": {
              "populated": 228,
              "missing": 0,
              "distinctPopulated": 67,
              "sampleValues": [
                "Nimort-01-001",
                "Nimort-01-002",
                "Nimort-01-004",
                "Nimort-01-005",
                "Nimort-01-007",
                "Nimort-01-008",
                "Nimort-01-010",
                "Nimort-01-011",
                "Nimort-01-013",
                "Nimort-01-014",
                "Nimort-01-016",
                "Nimort-01-017"
              ]
            },
            "BWSEQ": {
              "populated": 228,
              "missing": 0,
              "distinctPopulated": 4
            },
            "BWTESTCD": {
              "populated": 228,
              "missing": 0,
              "distinctPopulated": 1
            },
            "BWTEST": {
              "populated": 228,
              "missing": 0,
              "distinctPopulated": 1
            },
            "BWORRES": {
              "populated": 226,
              "missing": 2,
              "distinctPopulated": 224
            },
            "BWORRESU": {
              "populated": 228,
              "missing": 0,
              "distinctPopulated": 1,
              "sampleValues": [
                "g"
              ]
            },
            "BWSTRESC": {
              "populated": 226,
              "missing": 2,
              "distinctPopulated": 224
            },
            "BWSTRESN": {
              "populated": 226,
              "missing": 2,
              "distinctPopulated": 224
            },
            "BWSTRESU": {
              "populated": 228,
              "missing": 0,
              "distinctPopulated": 1,
              "sampleValues": [
                "g"
              ]
            },
            "BWSTAT": {
              "populated": 2,
              "missing": 226,
              "distinctPopulated": 1,
              "sampleValues": [
                "NOT DONE"
              ]
            },
            "BWREASND": {
              "populated": 2,
              "missing": 226,
              "distinctPopulated": 2
            },
            "BWBLFL": {
              "populated": 66,
              "missing": 162,
              "distinctPopulated": 1
            },
            "VISITDY": {
              "populated": 228,
              "missing": 0,
              "distinctPopulated": 18,
              "sampleValues": [
                -10,
                -11,
                -12,
                -13,
                -14,
                -15,
                -16,
                -17,
                -19,
                -24,
                -26,
                -27
              ]
            },
            "BWDTC": {
              "populated": 228,
              "missing": 0,
              "distinctPopulated": 55
            }
          },
          "sourceSystem": {
            "name": "pyreadstat",
            "version": "1.3.6"
          },
          "tableName": "BW"
        },
        {
          "domain": "CL",
          "path": "data/studies/Nimble/CL.xpt",
          "bytes": 15120,
          "sha256": "f58fdce463d1bf8948a1fb9af601a9b59e60c779677e69a1e227c7dafd9c4086",
          "rows": 93,
          "columns": [
            "STUDYID",
            "DOMAIN",
            "USUBJID",
            "CLSEQ",
            "CLTESTCD",
            "CLTEST",
            "CLCAT",
            "CLORRES",
            "CLSTRESC",
            "CLLOC",
            "CLSEV",
            "VISITDY",
            "CLDTC"
          ],
          "populatedColumns": [
            "STUDYID",
            "DOMAIN",
            "USUBJID",
            "CLSEQ",
            "CLTESTCD",
            "CLTEST",
            "CLCAT",
            "CLORRES",
            "CLSTRESC",
            "CLSEV",
            "VISITDY",
            "CLDTC"
          ],
          "subjectCount": 58,
          "identityFields": [
            "STUDYID",
            "DOMAIN",
            "USUBJID"
          ],
          "timingFields": [
            "VISITDY",
            "CLDTC"
          ],
          "relationshipFields": [],
          "referenceRangeFields": [],
          "unitFields": [],
          "columnProfile": {
            "STUDYID": {
              "populated": 93,
              "missing": 0,
              "distinctPopulated": 1,
              "sampleValues": [
                "Nimort-01"
              ]
            },
            "DOMAIN": {
              "populated": 93,
              "missing": 0,
              "distinctPopulated": 1,
              "sampleValues": [
                "CL"
              ]
            },
            "USUBJID": {
              "populated": 93,
              "missing": 0,
              "distinctPopulated": 58,
              "sampleValues": [
                "Nimort-01-001",
                "Nimort-01-002",
                "Nimort-01-004",
                "Nimort-01-005",
                "Nimort-01-008",
                "Nimort-01-010",
                "Nimort-01-011",
                "Nimort-01-013",
                "Nimort-01-014",
                "Nimort-01-016",
                "Nimort-01-017",
                "Nimort-01-020"
              ]
            },
            "CLSEQ": {
              "populated": 93,
              "missing": 0,
              "distinctPopulated": 4
            },
            "CLTESTCD": {
              "populated": 93,
              "missing": 0,
              "distinctPopulated": 4
            },
            "CLTEST": {
              "populated": 93,
              "missing": 0,
              "distinctPopulated": 4
            },
            "CLCAT": {
              "populated": 93,
              "missing": 0,
              "distinctPopulated": 1,
              "sampleValues": [
                "CLINICAL SIGNS"
              ]
            },
            "CLORRES": {
              "populated": 93,
              "missing": 0,
              "distinctPopulated": 5
            },
            "CLSTRESC": {
              "populated": 93,
              "missing": 0,
              "distinctPopulated": 5
            },
            "CLLOC": {
              "populated": 0,
              "missing": 93,
              "distinctPopulated": 0,
              "sampleValues": []
            },
            "CLSEV": {
              "populated": 93,
              "missing": 0,
              "distinctPopulated": 3,
              "sampleValues": [
                "MILD",
                "MODERATE",
                "SEVERE"
              ]
            },
            "VISITDY": {
              "populated": 93,
              "missing": 0,
              "distinctPopulated": 60,
              "sampleValues": [
                -1,
                -10,
                -11,
                -13,
                -16,
                -2,
                -20,
                -4,
                -44,
                -47,
                -5,
                -6
              ]
            },
            "CLDTC": {
              "populated": 93,
              "missing": 0,
              "distinctPopulated": 56
            }
          },
          "sourceSystem": {
            "name": "pyreadstat",
            "version": "1.3.6"
          },
          "tableName": "CL"
        },
        {
          "domain": "CO",
          "path": "data/studies/Nimble/CO.xpt",
          "bytes": 6640,
          "sha256": "876e0c7038bb133741c4bf347a3d1d1580e2e0a3124bcfe5e98214c7e62a47d2",
          "rows": 46,
          "columns": [
            "STUDYID",
            "DOMAIN",
            "RDOMAIN",
            "USUBJID",
            "COSEQ",
            "IDVAR",
            "IDVARVAL",
            "COVAL",
            "CODTC"
          ],
          "populatedColumns": [
            "STUDYID",
            "DOMAIN",
            "RDOMAIN",
            "USUBJID",
            "COSEQ",
            "IDVAR",
            "IDVARVAL",
            "COVAL"
          ],
          "subjectCount": 15,
          "identityFields": [
            "STUDYID",
            "DOMAIN",
            "USUBJID"
          ],
          "timingFields": [
            "CODTC"
          ],
          "relationshipFields": [
            "RDOMAIN",
            "IDVAR",
            "IDVARVAL"
          ],
          "referenceRangeFields": [],
          "unitFields": [],
          "columnProfile": {
            "STUDYID": {
              "populated": 46,
              "missing": 0,
              "distinctPopulated": 1,
              "sampleValues": [
                "Nimort-01"
              ]
            },
            "DOMAIN": {
              "populated": 46,
              "missing": 0,
              "distinctPopulated": 1,
              "sampleValues": [
                "CO"
              ]
            },
            "RDOMAIN": {
              "populated": 46,
              "missing": 0,
              "distinctPopulated": 3,
              "sampleValues": [
                "BG",
                "EX",
                "LB"
              ]
            },
            "USUBJID": {
              "populated": 46,
              "missing": 0,
              "distinctPopulated": 15,
              "sampleValues": [
                "Nimort-01-001",
                "Nimort-01-004",
                "Nimort-01-007",
                "Nimort-01-010",
                "Nimort-01-017",
                "Nimort-01-025",
                "Nimort-01-032",
                "Nimort-01-052",
                "Nimort-01-059",
                "Nimort-01-061",
                "Nimort-01-064",
                "Nimort-01-079"
              ]
            },
            "COSEQ": {
              "populated": 46,
              "missing": 0,
              "distinctPopulated": 6
            },
            "IDVAR": {
              "populated": 46,
              "missing": 0,
              "distinctPopulated": 3,
              "sampleValues": [
                "BGSEQ",
                "EXSEQ",
                "LBSEQ"
              ]
            },
            "IDVARVAL": {
              "populated": 46,
              "missing": 0,
              "distinctPopulated": 18,
              "sampleValues": [
                "1",
                "10",
                "11",
                "12",
                "13",
                "14",
                "15",
                "16",
                "17",
                "18",
                "2",
                "3"
              ]
            },
            "COVAL": {
              "populated": 46,
              "missing": 0,
              "distinctPopulated": 6
            },
            "CODTC": {
              "populated": 0,
              "missing": 46,
              "distinctPopulated": 0
            }
          },
          "sourceSystem": {
            "name": "pyreadstat",
            "version": "1.3.6"
          },
          "tableName": "CO"
        },
        {
          "domain": "DM",
          "path": "data/studies/Nimble/DM.xpt",
          "bytes": 12640,
          "sha256": "0dd98a323106dd926adb659dccc810fe80ab439b0d0a7e19f08c345732db8800",
          "rows": 100,
          "columns": [
            "STUDYID",
            "DOMAIN",
            "USUBJID",
            "SUBJID",
            "RFSTDTC",
            "RFENDTC",
            "SITEID",
            "AGETXT",
            "AGEU",
            "SEX",
            "SPECIES",
            "STRAIN",
            "ARMCD",
            "ARM",
            "SETCD"
          ],
          "populatedColumns": [
            "STUDYID",
            "DOMAIN",
            "USUBJID",
            "SUBJID",
            "RFSTDTC",
            "RFENDTC",
            "SITEID",
            "AGETXT",
            "AGEU",
            "SEX",
            "SPECIES",
            "STRAIN",
            "ARMCD",
            "ARM",
            "SETCD"
          ],
          "subjectCount": 100,
          "identityFields": [
            "STUDYID",
            "DOMAIN",
            "USUBJID",
            "SUBJID",
            "SETCD"
          ],
          "timingFields": [
            "RFSTDTC",
            "RFENDTC"
          ],
          "relationshipFields": [],
          "referenceRangeFields": [],
          "unitFields": [],
          "columnProfile": {
            "STUDYID": {
              "populated": 100,
              "missing": 0,
              "distinctPopulated": 1,
              "sampleValues": [
                "Nimort-01"
              ]
            },
            "DOMAIN": {
              "populated": 100,
              "missing": 0,
              "distinctPopulated": 1,
              "sampleValues": [
                "DM"
              ]
            },
            "USUBJID": {
              "populated": 100,
              "missing": 0,
              "distinctPopulated": 100,
              "sampleValues": [
                "Nimort-01-001",
                "Nimort-01-002",
                "Nimort-01-003",
                "Nimort-01-004",
                "Nimort-01-005",
                "Nimort-01-006",
                "Nimort-01-007",
                "Nimort-01-008",
                "Nimort-01-009",
                "Nimort-01-010",
                "Nimort-01-011",
                "Nimort-01-012"
              ]
            },
            "SUBJID": {
              "populated": 100,
              "missing": 0,
              "distinctPopulated": 100,
              "sampleValues": [
                "1",
                "10",
                "100",
                "11",
                "12",
                "13",
                "14",
                "15",
                "16",
                "17",
                "18",
                "19"
              ]
            },
            "RFSTDTC": {
              "populated": 67,
              "missing": 33,
              "distinctPopulated": 67
            },
            "RFENDTC": {
              "populated": 67,
              "missing": 33,
              "distinctPopulated": 67
            },
            "SITEID": {
              "populated": 100,
              "missing": 0,
              "distinctPopulated": 4
            },
            "AGETXT": {
              "populated": 100,
              "missing": 0,
              "distinctPopulated": 1
            },
            "AGEU": {
              "populated": 100,
              "missing": 0,
              "distinctPopulated": 1
            },
            "SEX": {
              "populated": 100,
              "missing": 0,
              "distinctPopulated": 2
            },
            "SPECIES": {
              "populated": 100,
              "missing": 0,
              "distinctPopulated": 1
            },
            "STRAIN": {
              "populated": 100,
              "missing": 0,
              "distinctPopulated": 1
            },
            "ARMCD": {
              "populated": 100,
              "missing": 0,
              "distinctPopulated": 2
            },
            "ARM": {
              "populated": 100,
              "missing": 0,
              "distinctPopulated": 2
            },
            "SETCD": {
              "populated": 100,
              "missing": 0,
              "distinctPopulated": 3,
              "sampleValues": [
                "1",
                "2",
                "3"
              ]
            }
          },
          "sourceSystem": {
            "name": "pyreadstat",
            "version": "1.3.6"
          },
          "tableName": "DM"
        },
        {
          "domain": "DS",
          "path": "data/studies/Nimble/DS.xpt",
          "bytes": 7840,
          "sha256": "c5295a989d374f06d4ff700b13ce88d94d8307a97443b61676e2db471e81a044",
          "rows": 67,
          "columns": [
            "STUDYID",
            "DOMAIN",
            "USUBJID",
            "DSSEQ",
            "DSTERM",
            "DSDECOD",
            "VISITDY",
            "DSSTDTC"
          ],
          "populatedColumns": [
            "STUDYID",
            "DOMAIN",
            "USUBJID",
            "DSSEQ",
            "DSTERM",
            "DSDECOD",
            "VISITDY",
            "DSSTDTC"
          ],
          "subjectCount": 67,
          "identityFields": [
            "STUDYID",
            "DOMAIN",
            "USUBJID"
          ],
          "timingFields": [
            "VISITDY",
            "DSSTDTC"
          ],
          "relationshipFields": [],
          "referenceRangeFields": [],
          "unitFields": [],
          "columnProfile": {
            "STUDYID": {
              "populated": 67,
              "missing": 0,
              "distinctPopulated": 1,
              "sampleValues": [
                "Nimort-01"
              ]
            },
            "DOMAIN": {
              "populated": 67,
              "missing": 0,
              "distinctPopulated": 1,
              "sampleValues": [
                "DS"
              ]
            },
            "USUBJID": {
              "populated": 67,
              "missing": 0,
              "distinctPopulated": 67,
              "sampleValues": [
                "Nimort-01-001",
                "Nimort-01-002",
                "Nimort-01-004",
                "Nimort-01-005",
                "Nimort-01-007",
                "Nimort-01-008",
                "Nimort-01-010",
                "Nimort-01-011",
                "Nimort-01-013",
                "Nimort-01-014",
                "Nimort-01-016",
                "Nimort-01-017"
              ]
            },
            "DSSEQ": {
              "populated": 67,
              "missing": 0,
              "distinctPopulated": 1
            },
            "DSTERM": {
              "populated": 67,
              "missing": 0,
              "distinctPopulated": 4
            },
            "DSDECOD": {
              "populated": 67,
              "missing": 0,
              "distinctPopulated": 4
            },
            "VISITDY": {
              "populated": 67,
              "missing": 0,
              "distinctPopulated": 25,
              "sampleValues": [
                100,
                45,
                55,
                56,
                76,
                78,
                79,
                80,
                81,
                82,
                83,
                84
              ]
            },
            "DSSTDTC": {
              "populated": 67,
              "missing": 0,
              "distinctPopulated": 27
            }
          },
          "sourceSystem": {
            "name": "pyreadstat",
            "version": "1.3.6"
          },
          "tableName": "DS"
        },
        {
          "domain": "EX",
          "path": "data/studies/Nimble/EX.xpt",
          "bytes": 50720,
          "sha256": "3f10b2551c1bf1deaeed68d3355a6a68b074167e683aaa98057105aef6e2455b",
          "rows": 351,
          "columns": [
            "STUDYID",
            "DOMAIN",
            "USUBJID",
            "EXSEQ",
            "EXTRT",
            "EXDOSE",
            "EXDOSU",
            "EXDOSFRM",
            "EXDOSFRQ",
            "EXROUTE",
            "EXLOT",
            "EXTRTV",
            "EXSTDTC",
            "EXENDTC",
            "EXSTDY",
            "EXENDY"
          ],
          "populatedColumns": [
            "STUDYID",
            "DOMAIN",
            "USUBJID",
            "EXSEQ",
            "EXTRT",
            "EXDOSE",
            "EXDOSU",
            "EXDOSFRM",
            "EXDOSFRQ",
            "EXROUTE",
            "EXLOT",
            "EXTRTV",
            "EXSTDTC",
            "EXENDTC",
            "EXSTDY",
            "EXENDY"
          ],
          "subjectCount": 67,
          "identityFields": [
            "STUDYID",
            "DOMAIN",
            "USUBJID"
          ],
          "timingFields": [
            "EXSTDTC",
            "EXENDTC",
            "EXSTDY",
            "EXENDY"
          ],
          "relationshipFields": [],
          "referenceRangeFields": [],
          "unitFields": [
            "EXDOSU"
          ],
          "columnProfile": {
            "STUDYID": {
              "populated": 351,
              "missing": 0,
              "distinctPopulated": 1,
              "sampleValues": [
                "Nimort-01"
              ]
            },
            "DOMAIN": {
              "populated": 351,
              "missing": 0,
              "distinctPopulated": 1,
              "sampleValues": [
                "EX"
              ]
            },
            "USUBJID": {
              "populated": 351,
              "missing": 0,
              "distinctPopulated": 67,
              "sampleValues": [
                "Nimort-01-001",
                "Nimort-01-002",
                "Nimort-01-004",
                "Nimort-01-005",
                "Nimort-01-007",
                "Nimort-01-008",
                "Nimort-01-010",
                "Nimort-01-011",
                "Nimort-01-013",
                "Nimort-01-014",
                "Nimort-01-016",
                "Nimort-01-017"
              ]
            },
            "EXSEQ": {
              "populated": 351,
              "missing": 0,
              "distinctPopulated": 16
            },
            "EXTRT": {
              "populated": 351,
              "missing": 0,
              "distinctPopulated": 2
            },
            "EXDOSE": {
              "populated": 351,
              "missing": 0,
              "distinctPopulated": 3
            },
            "EXDOSU": {
              "populated": 351,
              "missing": 0,
              "distinctPopulated": 1,
              "sampleValues": [
                "mg/kg/day"
              ]
            },
            "EXDOSFRM": {
              "populated": 351,
              "missing": 0,
              "distinctPopulated": 1
            },
            "EXDOSFRQ": {
              "populated": 351,
              "missing": 0,
              "distinctPopulated": 1
            },
            "EXROUTE": {
              "populated": 351,
              "missing": 0,
              "distinctPopulated": 1
            },
            "EXLOT": {
              "populated": 351,
              "missing": 0,
              "distinctPopulated": 1
            },
            "EXTRTV": {
              "populated": 351,
              "missing": 0,
              "distinctPopulated": 1
            },
            "EXSTDTC": {
              "populated": 351,
              "missing": 0,
              "distinctPopulated": 337
            },
            "EXENDTC": {
              "populated": 351,
              "missing": 0,
              "distinctPopulated": 337
            },
            "EXSTDY": {
              "populated": 351,
              "missing": 0,
              "distinctPopulated": 15
            },
            "EXENDY": {
              "populated": 351,
              "missing": 0,
              "distinctPopulated": 15
            }
          },
          "sourceSystem": {
            "name": "pyreadstat",
            "version": "1.3.6"
          },
          "tableName": "EX"
        },
        {
          "domain": "FW",
          "path": "data/studies/Nimble/FW.xpt",
          "bytes": 3120,
          "sha256": "d8711b8336998ba892aaadde4aa17b7dd379cbadf77e512374a5e85e9b6703a6",
          "rows": 4,
          "columns": [
            "STUDYID",
            "DOMAIN",
            "USUBJID",
            "POOLID",
            "FWSEQ",
            "FWTESTCD",
            "FWTEST",
            "FWORRES",
            "FWORRESU",
            "FWSTRESC",
            "FWSTRESN",
            "FWSTRESU",
            "FWDTC",
            "FWENDTC"
          ],
          "populatedColumns": [
            "STUDYID",
            "DOMAIN",
            "POOLID",
            "FWSEQ",
            "FWTESTCD",
            "FWTEST",
            "FWORRES",
            "FWORRESU",
            "FWSTRESC",
            "FWSTRESN",
            "FWSTRESU",
            "FWDTC",
            "FWENDTC"
          ],
          "subjectCount": 0,
          "identityFields": [
            "STUDYID",
            "DOMAIN",
            "USUBJID",
            "POOLID"
          ],
          "timingFields": [
            "FWDTC",
            "FWENDTC"
          ],
          "relationshipFields": [],
          "referenceRangeFields": [],
          "unitFields": [
            "FWORRESU",
            "FWSTRESU"
          ],
          "columnProfile": {
            "STUDYID": {
              "populated": 4,
              "missing": 0,
              "distinctPopulated": 1,
              "sampleValues": [
                "Nimort-01"
              ]
            },
            "DOMAIN": {
              "populated": 4,
              "missing": 0,
              "distinctPopulated": 1,
              "sampleValues": [
                "FW"
              ]
            },
            "USUBJID": {
              "populated": 0,
              "missing": 4,
              "distinctPopulated": 0,
              "sampleValues": []
            },
            "POOLID": {
              "populated": 4,
              "missing": 0,
              "distinctPopulated": 2,
              "sampleValues": [
                "100",
                "200"
              ]
            },
            "FWSEQ": {
              "populated": 4,
              "missing": 0,
              "distinctPopulated": 4
            },
            "FWTESTCD": {
              "populated": 4,
              "missing": 0,
              "distinctPopulated": 2
            },
            "FWTEST": {
              "populated": 4,
              "missing": 0,
              "distinctPopulated": 2
            },
            "FWORRES": {
              "populated": 4,
              "missing": 0,
              "distinctPopulated": 2
            },
            "FWORRESU": {
              "populated": 4,
              "missing": 0,
              "distinctPopulated": 2,
              "sampleValues": [
                "g",
                "mL"
              ]
            },
            "FWSTRESC": {
              "populated": 4,
              "missing": 0,
              "distinctPopulated": 2
            },
            "FWSTRESN": {
              "populated": 4,
              "missing": 0,
              "distinctPopulated": 2
            },
            "FWSTRESU": {
              "populated": 4,
              "missing": 0,
              "distinctPopulated": 2,
              "sampleValues": [
                "g/animal/day",
                "mL/animal/day"
              ]
            },
            "FWDTC": {
              "populated": 4,
              "missing": 0,
              "distinctPopulated": 1
            },
            "FWENDTC": {
              "populated": 4,
              "missing": 0,
              "distinctPopulated": 1
            }
          },
          "sourceSystem": {
            "name": "pyreadstat",
            "version": "1.3.6"
          },
          "tableName": "FW"
        },
        {
          "domain": "LB",
          "path": "data/studies/Nimble/LB.xpt",
          "bytes": 172400,
          "sha256": "ee8353ce96dccba19c87bbe6b0af257c30d51173da1044682a33c479c25bd57b",
          "rows": 1086,
          "columns": [
            "STUDYID",
            "DOMAIN",
            "USUBJID",
            "LBSEQ",
            "LBTESTCD",
            "LBTEST",
            "LBCAT",
            "LBORRES",
            "LBORRESU",
            "LBORNRLO",
            "LBORNRHI",
            "LBSTRESC",
            "LBSTRESN",
            "LBSTRESU",
            "LBSTNRLO",
            "LBSTNRHI",
            "LBNRIND",
            "LBSPEC",
            "LBMETHOD",
            "LBBLFL",
            "VISITDY",
            "LBDTC",
            "LBTPT"
          ],
          "populatedColumns": [
            "STUDYID",
            "DOMAIN",
            "USUBJID",
            "LBSEQ",
            "LBTESTCD",
            "LBTEST",
            "LBCAT",
            "LBORRES",
            "LBORRESU",
            "LBORNRLO",
            "LBORNRHI",
            "LBSTRESC",
            "LBSTRESN",
            "LBSTRESU",
            "LBSTNRLO",
            "LBSTNRHI",
            "LBSPEC",
            "LBBLFL",
            "VISITDY",
            "LBDTC",
            "LBTPT"
          ],
          "subjectCount": 67,
          "identityFields": [
            "STUDYID",
            "DOMAIN",
            "USUBJID"
          ],
          "timingFields": [
            "VISITDY",
            "LBDTC",
            "LBTPT"
          ],
          "relationshipFields": [],
          "referenceRangeFields": [
            "LBORNRLO",
            "LBORNRHI",
            "LBSTNRLO",
            "LBSTNRHI",
            "LBNRIND"
          ],
          "unitFields": [
            "LBORRESU",
            "LBSTRESU"
          ],
          "columnProfile": {
            "STUDYID": {
              "populated": 1086,
              "missing": 0,
              "distinctPopulated": 1,
              "sampleValues": [
                "Nimort-01"
              ]
            },
            "DOMAIN": {
              "populated": 1086,
              "missing": 0,
              "distinctPopulated": 1,
              "sampleValues": [
                "LB"
              ]
            },
            "USUBJID": {
              "populated": 1086,
              "missing": 0,
              "distinctPopulated": 67,
              "sampleValues": [
                "Nimort-01-001",
                "Nimort-01-002",
                "Nimort-01-004",
                "Nimort-01-005",
                "Nimort-01-007",
                "Nimort-01-008",
                "Nimort-01-010",
                "Nimort-01-011",
                "Nimort-01-013",
                "Nimort-01-014",
                "Nimort-01-016",
                "Nimort-01-017"
              ]
            },
            "LBSEQ": {
              "populated": 1086,
              "missing": 0,
              "distinctPopulated": 18
            },
            "LBTESTCD": {
              "populated": 1086,
              "missing": 0,
              "distinctPopulated": 3
            },
            "LBTEST": {
              "populated": 1086,
              "missing": 0,
              "distinctPopulated": 3
            },
            "LBCAT": {
              "populated": 1086,
              "missing": 0,
              "distinctPopulated": 1,
              "sampleValues": [
                "Chemistry"
              ]
            },
            "LBORRES": {
              "populated": 1086,
              "missing": 0,
              "distinctPopulated": 41
            },
            "LBORRESU": {
              "populated": 1086,
              "missing": 0,
              "distinctPopulated": 2,
              "sampleValues": [
                "g/L",
                "mmol/L"
              ]
            },
            "LBORNRLO": {
              "populated": 1086,
              "missing": 0,
              "distinctPopulated": 3
            },
            "LBORNRHI": {
              "populated": 1086,
              "missing": 0,
              "distinctPopulated": 3
            },
            "LBSTRESC": {
              "populated": 1086,
              "missing": 0,
              "distinctPopulated": 41
            },
            "LBSTRESN": {
              "populated": 1086,
              "missing": 0,
              "distinctPopulated": 41
            },
            "LBSTRESU": {
              "populated": 1086,
              "missing": 0,
              "distinctPopulated": 2,
              "sampleValues": [
                "g/L",
                "mmol/L"
              ]
            },
            "LBSTNRLO": {
              "populated": 1086,
              "missing": 0,
              "distinctPopulated": 3
            },
            "LBSTNRHI": {
              "populated": 1086,
              "missing": 0,
              "distinctPopulated": 3
            },
            "LBNRIND": {
              "populated": 0,
              "missing": 1086,
              "distinctPopulated": 0
            },
            "LBSPEC": {
              "populated": 1086,
              "missing": 0,
              "distinctPopulated": 1,
              "sampleValues": [
                "WHOLE BLOOD"
              ]
            },
            "LBMETHOD": {
              "populated": 0,
              "missing": 1086,
              "distinctPopulated": 0,
              "sampleValues": []
            },
            "LBBLFL": {
              "populated": 201,
              "missing": 885,
              "distinctPopulated": 1
            },
            "VISITDY": {
              "populated": 1086,
              "missing": 0,
              "distinctPopulated": 18,
              "sampleValues": [
                -10,
                -11,
                -12,
                -13,
                -14,
                -15,
                -16,
                -17,
                -19,
                -24,
                -26,
                -27
              ]
            },
            "LBDTC": {
              "populated": 1086,
              "missing": 0,
              "distinctPopulated": 55
            },
            "LBTPT": {
              "populated": 603,
              "missing": 483,
              "distinctPopulated": 3
            }
          },
          "sourceSystem": {
            "name": "pyreadstat",
            "version": "1.3.6"
          },
          "tableName": "LB"
        },
        {
          "domain": "MA",
          "path": "data/studies/Nimble/MA.xpt",
          "bytes": 28960,
          "sha256": "1da6b0d37f78a66c17e2bcf57e880f2f4a6ed9aa50327cc0aff6121777f925ae",
          "rows": 125,
          "columns": [
            "STUDYID",
            "DOMAIN",
            "USUBJID",
            "MASEQ",
            "MATESTCD",
            "MATEST",
            "MAORRES",
            "MASTRESC",
            "MASPEC",
            "MAANTREG",
            "MADTC"
          ],
          "populatedColumns": [
            "STUDYID",
            "DOMAIN",
            "USUBJID",
            "MASEQ",
            "MATESTCD",
            "MATEST",
            "MAORRES",
            "MASTRESC",
            "MASPEC",
            "MADTC"
          ],
          "subjectCount": 67,
          "identityFields": [
            "STUDYID",
            "DOMAIN",
            "USUBJID"
          ],
          "timingFields": [
            "MADTC"
          ],
          "relationshipFields": [],
          "referenceRangeFields": [],
          "unitFields": [],
          "columnProfile": {
            "STUDYID": {
              "populated": 125,
              "missing": 0,
              "distinctPopulated": 1,
              "sampleValues": [
                "Nimort-01"
              ]
            },
            "DOMAIN": {
              "populated": 125,
              "missing": 0,
              "distinctPopulated": 1,
              "sampleValues": [
                "MA"
              ]
            },
            "USUBJID": {
              "populated": 125,
              "missing": 0,
              "distinctPopulated": 67,
              "sampleValues": [
                "Nimort-01-001",
                "Nimort-01-002",
                "Nimort-01-004",
                "Nimort-01-005",
                "Nimort-01-007",
                "Nimort-01-008",
                "Nimort-01-010",
                "Nimort-01-011",
                "Nimort-01-013",
                "Nimort-01-014",
                "Nimort-01-016",
                "Nimort-01-017"
              ]
            },
            "MASEQ": {
              "populated": 125,
              "missing": 0,
              "distinctPopulated": 4
            },
            "MATESTCD": {
              "populated": 125,
              "missing": 0,
              "distinctPopulated": 1
            },
            "MATEST": {
              "populated": 125,
              "missing": 0,
              "distinctPopulated": 1
            },
            "MAORRES": {
